id session block trial instruction source strength response response_num correct rt outlier acc
jf 2 1 21 accuracy dark 8 dark 1 TRUE 0.801 FALSE TRUE
jf 2 1 22 accuracy dark 7 dark 1 TRUE 0.68 FALSE TRUE
jf 2 1 23 accuracy light 19 light 2 TRUE 0.694 FALSE TRUE
jf 2 1 24 accuracy dark 21 light 2 FALSE 0.582 FALSE FALSE
jf 2 1 25 accuracy light 19 dark 1 FALSE 0.925 FALSE FALSE
jf 2 1 26 accuracy dark 10 dark 1 TRUE 0.605 FALSE TRUE
jf 2 1 27 accuracy light 20 light 2 TRUE 0.626 FALSE TRUE
jf 2 1 28 accuracy dark 14 dark 1 TRUE 0.736 FALSE TRUE
jf 2 1 29 accuracy light 10 dark 1 FALSE 0.662 FALSE FALSE
jf 2 1 30 accuracy light 15 light 2 TRUE 0.8 FALSE TRUE
jf 2 1 31 accuracy light 27 light 2 TRUE 0.563 FALSE TRUE
jf 2 1 32 accuracy dark 13 dark 1 TRUE 0.685 FALSE TRUE
jf 2 1 33 accuracy light 23 light 2 TRUE 0.625 FALSE TRUE
jf 2 1 34 accuracy dark 7 dark 1 TRUE 0.618 FALSE TRUE
jf 2 1 35 accuracy dark 8 dark 1 TRUE 0.911 FALSE TRUE
jf 2 1 36 accuracy dark 13 dark 1 TRUE 0.794 FALSE TRUE
jf 2 1 37 accuracy light 18 light 2 TRUE 0.558 FALSE TRUE
jf 2 1 38 accuracy light 19 light 2 TRUE 0.532 FALSE TRUE
jf 2 1 39 accuracy light 22 light 2 TRUE 0.482 FALSE TRUE
jf 2 1 40 accuracy light 12 dark 1 FALSE 0.604 FALSE FALSE
jf 2 1 41 accuracy light 16 dark 1 FALSE 0.986 FALSE FALSE
jf 2 1 42 accuracy light 10 dark 1 FALSE 0.622 FALSE FALSE
jf 2 1 43 accuracy light 15 light 2 TRUE 0.732 FALSE TRUE
jf 2 1 44 accuracy dark 19 light 2 FALSE 0.529 FALSE FALSE
jf 2 1 45 accuracy dark 8 dark 1 TRUE 0.578 FALSE TRUE
jf 2 1 46 accuracy light 13 light 2 TRUE 1.85 FALSE TRUE
jf 2 1 47 accuracy dark 7 dark 1 TRUE 1.03 FALSE TRUE
jf 2 1 48 accuracy light 20 light 2 TRUE 0.989 FALSE TRUE
jf 2 1 49 accuracy dark 18 light 2 FALSE 1.01 FALSE FALSE
jf 2 1 50 accuracy light 19 light 2 TRUE 1.318 FALSE TRUE
jf 2 1 51 accuracy light 20 light 2 TRUE 1.373 FALSE TRUE
jf 2 1 52 accuracy dark 21 light 2 FALSE 1.308 FALSE FALSE
jf 2 1 53 accuracy dark 3 dark 1 TRUE 0.743 FALSE TRUE
jf 2 1 54 accuracy dark 14 light 2 FALSE 1.948 FALSE FALSE
jf 2 1 55 accuracy light 18 light 2 TRUE 1.498 FALSE TRUE
jf 2 1 56 accuracy dark 10 dark 1 TRUE 0.783 FALSE TRUE
jf 2 1 57 accuracy dark 11 dark 1 TRUE 0.911 FALSE TRUE
jf 2 1 58 accuracy dark 8 dark 1 TRUE 0.73 FALSE TRUE
jf 2 1 59 accuracy light 19 light 2 TRUE 0.691 FALSE TRUE
jf 2 1 60 accuracy dark 13 dark 1 TRUE 0.867 FALSE TRUE
jf 2 1 61 accuracy light 12 dark 1 FALSE 0.861 FALSE FALSE
jf 2 1 62 accuracy light 25 light 2 TRUE 0.767 FALSE TRUE
jf 2 1 63 accuracy dark 8 dark 1 TRUE 0.767 FALSE TRUE
jf 2 1 64 accuracy dark 3 dark 1 TRUE 0.729 FALSE TRUE
jf 2 1 65 accuracy light 7 dark 1 FALSE 0.96 FALSE FALSE
jf 2 1 66 accuracy dark 13 light 2 FALSE 1.379 FALSE FALSE
jf 2 1 67 accuracy light 13 dark 1 FALSE 1.537 FALSE FALSE
jf 2 1 68 accuracy light 22 light 2 TRUE 0.583 FALSE TRUE
jf 2 1 69 accuracy light 11 dark 1 FALSE 0.601 FALSE FALSE
jf 2 1 70 accuracy light 27 light 2 TRUE 0.635 FALSE TRUE
jf 2 1 71 accuracy light 21 light 2 TRUE 1.323 FALSE TRUE
jf 2 1 72 accuracy light 22 light 2 TRUE 1.111 FALSE TRUE
jf 2 1 73 accuracy light 17 light 2 TRUE 1.257 FALSE TRUE
jf 2 1 74 accuracy dark 6 dark 1 TRUE 0.668 FALSE TRUE
jf 2 1 75 accuracy dark 10 dark 1 TRUE 0.679 FALSE TRUE
jf 2 1 76 accuracy light 17 light 2 TRUE 0.973 FALSE TRUE
jf 2 1 77 accuracy light 24 light 2 TRUE 0.58 FALSE TRUE
jf 2 1 78 accuracy dark 18 light 2 FALSE 0.963 FALSE FALSE
jf 2 1 79 accuracy light 19 dark 1 FALSE 1.436 FALSE FALSE
jf 2 1 80 accuracy dark 11 dark 1 TRUE 0.589 FALSE TRUE
jf 2 1 81 accuracy dark 4 dark 1 TRUE 0.58 FALSE TRUE
jf 2 1 82 accuracy light 6 dark 1 FALSE 1.045 FALSE FALSE
jf 2 1 83 accuracy dark 20 light 2 FALSE 0.749 FALSE FALSE
jf 2 1 84 accuracy light 17 dark 1 FALSE 1.802 FALSE FALSE
jf 2 1 85 accuracy light 31 light 2 TRUE 0.633 FALSE TRUE
jf 2 1 86 accuracy light 11 dark 1 FALSE 1.016 FALSE FALSE
jf 2 1 87 accuracy light 19 light 2 TRUE 0.799 FALSE TRUE
jf 2 1 88 accuracy dark 15 light 2 FALSE 0.747 FALSE FALSE
jf 2 1 89 accuracy light 19 light 2 TRUE 2.341 FALSE TRUE
jf 2 1 90 accuracy light 18 light 2 TRUE 2.747 TRUE TRUE
jf 2 1 91 accuracy light 24 light 2 TRUE 0.795 FALSE TRUE
jf 2 1 92 accuracy dark 21 dark 1 TRUE 1.38 FALSE TRUE
jf 2 1 93 accuracy light 27 light 2 TRUE 0.709 FALSE TRUE
jf 2 1 94 accuracy light 31 light 2 TRUE 0.995 FALSE TRUE
jf 2 1 95 accuracy dark 7 dark 1 TRUE 0.669 FALSE TRUE
jf 2 1 96 accuracy light 23 light 2 TRUE 1.238 FALSE TRUE
jf 2 1 97 accuracy light 17 light 2 TRUE 0.63 FALSE TRUE
jf 2 1 98 accuracy light 17 dark 1 FALSE 1.38 FALSE FALSE
jf 2 1 99 accuracy dark 6 dark 1 TRUE 0.573 FALSE TRUE
jf 2 1 100 accuracy light 9 dark 1 FALSE 0.696 FALSE FALSE
jf 2 1 101 accuracy dark 2 dark 1 TRUE 0.689 FALSE TRUE
jf 2 1 102 accuracy dark 9 light 2 FALSE 0.726 FALSE FALSE
jf 2 2 2 accuracy light 21 light 2 TRUE 1.989 FALSE TRUE
jf 2 2 3 accuracy dark 15 dark 1 TRUE 2.14 FALSE TRUE
jf 2 2 4 accuracy light 24 light 2 TRUE 1.65 FALSE TRUE
jf 2 2 5 accuracy dark 19 dark 1 TRUE 2.257 FALSE TRUE
jf 2 2 6 accuracy light 25 light 2 TRUE 2.179 FALSE TRUE
jf 2 2 7 accuracy dark 8 dark 1 TRUE 1.198 FALSE TRUE
jf 2 2 8 accuracy dark 5 dark 1 TRUE 1.392 FALSE TRUE
jf 2 2 9 accuracy light 19 light 2 TRUE 1.453 FALSE TRUE
jf 2 2 10 accuracy dark 1 dark 1 TRUE 1.446 FALSE TRUE
jf 2 2 11 accuracy light 20 light 2 TRUE 1.817 FALSE TRUE
jf 2 2 12 accuracy dark 4 dark 1 TRUE 1.363 FALSE TRUE
jf 2 2 13 accuracy light 19 light 2 TRUE 1.486 FALSE TRUE
jf 2 2 14 accuracy dark 23 light 2 FALSE 1.094 FALSE FALSE
jf 2 2 15 accuracy light 18 light 2 TRUE 2.739 TRUE TRUE
jf 2 2 16 accuracy light 20 dark 1 FALSE 2.338 FALSE FALSE
jf 2 2 17 accuracy light 12 dark 1 FALSE 0.806 FALSE FALSE
jf 2 2 18 accuracy dark 9 dark 1 TRUE 1.498 FALSE TRUE
jf 2 2 19 accuracy dark 21 light 2 FALSE 1.601 FALSE FALSE
jf 2 2 20 accuracy dark 17 light 2 FALSE 2.276 FALSE FALSE
jf 2 2 21 accuracy light 20 light 2 TRUE 2.689 TRUE TRUE
jf 2 2 22 accuracy light 19 light 2 TRUE 2.002 FALSE TRUE
jf 2 2 23 accuracy light 21 light 2 TRUE 2.778 TRUE TRUE
jf 2 2 24 accuracy dark 24 light 2 FALSE 0.993 FALSE FALSE
jf 2 2 25 accuracy dark 18 dark 1 TRUE 2.231 FALSE TRUE
jf 2 2 26 accuracy dark 12 dark 1 TRUE 1.061 FALSE TRUE
jf 2 2 27 accuracy light 20 light 2 TRUE 1.137 FALSE TRUE
jf 2 2 28 accuracy dark 12 dark 1 TRUE 0.867 FALSE TRUE
jf 2 2 29 accuracy light 17 light 2 TRUE 1.039 FALSE TRUE
jf 2 2 30 accuracy light 23 light 2 TRUE 1.341 FALSE TRUE
jf 2 2 31 accuracy light 11 dark 1 FALSE 1.099 FALSE FALSE
jf 2 2 32 accuracy dark 8 dark 1 TRUE 1.036 FALSE TRUE
jf 2 2 33 accuracy light 9 dark 1 FALSE 0.944 FALSE FALSE
jf 2 2 34 accuracy light 9 dark 1 FALSE 3.4 TRUE FALSE
jf 2 2 35 accuracy dark 14 light 2 FALSE 0.996 FALSE FALSE
jf 2 2 36 accuracy light 20 light 2 TRUE 0.786 FALSE TRUE
jf 2 2 37 accuracy dark 16 light 2 FALSE 1.06 FALSE FALSE
jf 2 2 38 accuracy dark 8 dark 1 TRUE 4.035 TRUE TRUE
jf 2 2 39 accuracy light 16 light 2 TRUE 1.137 FALSE TRUE
jf 2 2 40 accuracy light 17 light 2 TRUE 1.027 FALSE TRUE
jf 2 2 41 accuracy light 20 light 2 TRUE 1.243 FALSE TRUE
jf 2 2 42 accuracy light 23 light 2 TRUE 0.796 FALSE TRUE
jf 2 2 43 accuracy light 16 light 2 TRUE 1.622 FALSE TRUE
jf 2 2 44 accuracy dark 12 dark 1 TRUE 1.198 FALSE TRUE
jf 2 2 45 accuracy light 25 light 2 TRUE 1.385 FALSE TRUE
jf 2 2 46 accuracy light 24 light 2 TRUE 1.043 FALSE TRUE
jf 2 2 47 accuracy dark 14 dark 1 TRUE 1.676 FALSE TRUE
jf 2 2 48 accuracy light 12 dark 1 FALSE 2.218 FALSE FALSE
jf 2 2 49 accuracy dark 8 dark 1 TRUE 0.901 FALSE TRUE
jf 2 2 50 accuracy light 25 light 2 TRUE 1.007 FALSE TRUE
jf 2 2 51 accuracy dark 13 dark 1 TRUE 1.18 FALSE TRUE
jf 2 2 52 accuracy dark 14 light 2 FALSE 1.022 FALSE FALSE
jf 2 2 53 accuracy dark 19 light 2 FALSE 1.317 FALSE FALSE
jf 2 2 54 accuracy light 28 light 2 TRUE 0.854 FALSE TRUE
jf 2 2 55 accuracy light 22 light 2 TRUE 1.936 FALSE TRUE
jf 2 2 56 accuracy light 28 light 2 TRUE 0.762 FALSE TRUE
jf 2 2 57 accuracy dark 7 dark 1 TRUE 0.849 FALSE TRUE
jf 2 2 58 accuracy light 17 light 2 TRUE 1.717 FALSE TRUE
jf 2 2 59 accuracy dark 3 dark 1 TRUE 0.718 FALSE TRUE
jf 2 2 60 accuracy light 27 light 2 TRUE 1.055 FALSE TRUE
jf 2 2 61 accuracy light 21 light 2 TRUE 1.738 FALSE TRUE
jf 2 2 62 accuracy light 16 dark 1 FALSE 1.347 FALSE FALSE
jf 2 2 63 accuracy dark 19 light 2 FALSE 1.823 FALSE FALSE
jf 2 2 64 accuracy light 22 light 2 TRUE 2.109 FALSE TRUE
jf 2 2 65 accuracy dark 9 dark 1 TRUE 0.833 FALSE TRUE
jf 2 2 66 accuracy dark 8 dark 1 TRUE 0.663 FALSE TRUE
jf 2 2 67 accuracy dark 21 light 2 FALSE 0.923 FALSE FALSE
jf 2 2 68 accuracy light 21 light 2 TRUE 5.863 TRUE TRUE
jf 2 2 69 accuracy light 15 light 2 TRUE 2.282 FALSE TRUE
jf 2 2 70 accuracy light 14 dark 1 FALSE 0.948 FALSE FALSE
jf 2 2 71 accuracy dark 6 dark 1 TRUE 0.754 FALSE TRUE
jf 2 2 72 accuracy light 15 light 2 TRUE 1.221 FALSE TRUE
jf 2 2 73 accuracy light 18 light 2 TRUE 1.887 FALSE TRUE
jf 2 2 74 accuracy light 22 light 2 TRUE 1.375 FALSE TRUE
jf 2 2 75 accuracy dark 13 light 2 FALSE 1.804 FALSE FALSE
jf 2 2 76 accuracy dark 13 dark 1 TRUE 2.992 TRUE TRUE
jf 2 2 77 accuracy light 14 light 2 TRUE 1.518 FALSE TRUE
jf 2 2 78 accuracy dark 12 dark 1 TRUE 1.395 FALSE TRUE
jf 2 2 79 accuracy dark 15 dark 1 TRUE 2.2 FALSE TRUE
jf 2 2 80 accuracy light 7 dark 1 FALSE 1.092 FALSE FALSE
jf 2 2 81 accuracy light 25 light 2 TRUE 0.947 FALSE TRUE
jf 2 2 82 accuracy light 24 light 2 TRUE 1.193 FALSE TRUE
jf 2 2 83 accuracy light 13 light 2 TRUE 2.564 TRUE TRUE
jf 2 2 84 accuracy light 27 light 2 TRUE 0.828 FALSE TRUE
jf 2 2 85 accuracy dark 6 dark 1 TRUE 0.833 FALSE TRUE
jf 2 2 86 accuracy light 20 light 2 TRUE 1.056 FALSE TRUE
jf 2 2 87 accuracy dark 26 light 2 FALSE 1.159 FALSE FALSE
jf 2 2 88 accuracy dark 9 dark 1 TRUE 1.554 FALSE TRUE
jf 2 2 89 accuracy dark 12 dark 1 TRUE 3.076 TRUE TRUE
jf 2 2 90 accuracy dark 20 light 2 FALSE 1.618 FALSE FALSE
jf 2 2 91 accuracy light 13 dark 1 FALSE 1.75 FALSE FALSE
jf 2 2 92 accuracy dark 8 dark 1 TRUE 1.103 FALSE TRUE
jf 2 2 93 accuracy light 21 light 2 TRUE 0.741 FALSE TRUE
jf 2 2 94 accuracy light 11 dark 1 FALSE 0.735 FALSE FALSE
jf 2 2 95 accuracy dark 11 dark 1 TRUE 4.806 TRUE TRUE
jf 2 2 96 accuracy dark 10 dark 1 TRUE 1.39 FALSE TRUE
jf 2 2 97 accuracy light 20 light 2 TRUE 0.824 FALSE TRUE
jf 2 2 98 accuracy dark 20 light 2 FALSE 1.508 FALSE FALSE
jf 2 2 99 accuracy dark 18 light 2 FALSE 1.995 FALSE FALSE
jf 2 2 100 accuracy dark 17 light 2 FALSE 3.352 TRUE FALSE
jf 2 2 101 accuracy dark 9 dark 1 TRUE 0.643 FALSE TRUE
jf 2 2 102 accuracy light 9 dark 1 FALSE 0.794 FALSE FALSE
jf 2 3 2 speed dark 19 light 2 FALSE 0.419 FALSE FALSE
jf 2 3 3 speed dark 11 light 2 FALSE 0.322 FALSE FALSE
jf 2 3 4 speed dark 14 dark 1 TRUE 0.391 FALSE TRUE
jf 2 3 5 speed dark 15 dark 1 TRUE 0.33 FALSE TRUE
jf 2 3 6 speed light 25 light 2 TRUE 0.276 FALSE TRUE
jf 2 3 7 speed dark 21 light 2 FALSE 0.331 FALSE FALSE
jf 2 3 8 speed light 11 dark 1 FALSE 0.311 FALSE FALSE
jf 2 3 9 speed light 18 light 2 TRUE 0.319 FALSE TRUE
jf 2 3 10 speed dark 8 dark 1 TRUE 0.227 FALSE TRUE
jf 2 3 11 speed light 30 light 2 TRUE 0.276 FALSE TRUE
jf 2 3 12 speed dark 10 dark 1 TRUE 0.32 FALSE TRUE
jf 2 3 13 speed dark 8 dark 1 TRUE 0.281 FALSE TRUE
jf 2 3 14 speed dark 6 dark 1 TRUE 0.231 FALSE TRUE
jf 2 3 15 speed light 11 dark 1 FALSE 0.232 FALSE FALSE
jf 2 3 16 speed dark 0 dark 1 TRUE 0.275 FALSE TRUE
jf 2 3 17 speed light 19 dark 1 FALSE 0.216 FALSE FALSE
jf 2 3 18 speed dark 19 dark 1 TRUE 0.258 FALSE TRUE
jf 2 3 19 speed light 10 dark 1 FALSE 0.379 FALSE FALSE
jf 2 3 20 speed dark 23 light 2 FALSE 0.335 FALSE FALSE
jf 2 3 21 speed light 14 dark 1 FALSE 0.396 FALSE FALSE
jf 2 3 22 speed light 20 light 2 TRUE 0.302 FALSE TRUE
jf 2 3 23 speed light 18 light 2 TRUE 0.347 FALSE TRUE
jf 2 3 24 speed dark 9 dark 1 TRUE 0.318 FALSE TRUE
jf 2 3 25 speed dark 17 light 2 FALSE 0.324 FALSE FALSE
jf 2 3 26 speed dark 7 dark 1 TRUE 0.295 FALSE TRUE
jf 2 3 27 speed light 25 light 2 TRUE 0.275 FALSE TRUE
jf 2 3 28 speed light 22 light 2 TRUE 0.38 FALSE TRUE
jf 2 3 29 speed light 14 dark 1 FALSE 0.285 FALSE FALSE
jf 2 3 30 speed dark 11 dark 1 TRUE 0.406 FALSE TRUE
jf 2 3 31 speed dark 12 dark 1 TRUE 0.264 FALSE TRUE
jf 2 3 32 speed dark 8 dark 1 TRUE 0.282 FALSE TRUE
jf 2 3 33 speed light 20 light 2 TRUE 0.358 FALSE TRUE
jf 2 3 34 speed dark 3 dark 1 TRUE 0.203 FALSE TRUE
jf 2 3 35 speed dark 9 dark 1 TRUE 0.331 FALSE TRUE
jf 2 3 36 speed dark 11 dark 1 TRUE 0.263 FALSE TRUE
jf 2 3 37 speed dark 18 dark 1 TRUE 0.263 FALSE TRUE
jf 2 3 38 speed light 29 light 2 TRUE 0.3 FALSE TRUE
jf 2 3 39 speed light 28 light 2 TRUE 0.231 FALSE TRUE
jf 2 3 40 speed light 25 light 2 TRUE 0.249 FALSE TRUE
jf 2 3 41 speed dark 15 dark 1 TRUE 0.252 FALSE TRUE
jf 2 3 42 speed light 16 light 2 TRUE 0.409 FALSE TRUE
jf 2 3 43 speed light 27 dark 1 FALSE 0.302 FALSE FALSE
jf 2 3 44 speed dark 22 light 2 FALSE 0.468 FALSE FALSE
jf 2 3 45 speed dark 10 dark 1 TRUE 0.294 FALSE TRUE
jf 2 3 46 speed light 19 dark 1 FALSE 0.315 FALSE FALSE
jf 2 3 47 speed dark 16 dark 1 TRUE 0.386 FALSE TRUE
jf 2 3 48 speed dark 15 light 2 FALSE 0.542 FALSE FALSE
jf 2 3 49 speed light 17 dark 1 FALSE 0.342 FALSE FALSE
jf 2 3 50 speed light 25 light 2 TRUE 0.335 FALSE TRUE
jf 2 3 51 speed dark 6 dark 1 TRUE 0.368 FALSE TRUE
jf 2 3 52 speed dark 1 dark 1 TRUE 0.298 FALSE TRUE
jf 2 3 53 speed light 15 dark 1 FALSE 0.263 FALSE FALSE
jf 2 3 54 speed light 27 light 2 TRUE 0.27 FALSE TRUE
jf 2 3 55 speed light 22 light 2 TRUE 0.347 FALSE TRUE
jf 2 3 56 speed light 23 light 2 TRUE 0.347 FALSE TRUE
jf 2 3 57 speed light 19 light 2 TRUE 0.263 FALSE TRUE
jf 2 3 58 speed light 11 dark 1 FALSE 0.302 FALSE FALSE
jf 2 3 59 speed light 17 light 2 TRUE 0.303 FALSE TRUE
jf 2 3 60 speed dark 13 dark 1 TRUE 0.319 FALSE TRUE
jf 2 3 61 speed dark 16 light 2 FALSE 0.276 FALSE FALSE
jf 2 3 62 speed light 13 light 2 TRUE 0.306 FALSE TRUE
jf 2 3 63 speed light 15 dark 1 FALSE 0.253 FALSE FALSE
jf 2 3 64 speed dark 18 dark 1 TRUE 0.326 FALSE TRUE
jf 2 3 65 speed dark 6 dark 1 TRUE 0.304 FALSE TRUE
jf 2 3 66 speed dark 16 light 2 FALSE 0.292 FALSE FALSE
jf 2 3 67 speed light 22 dark 1 FALSE 0.228 FALSE FALSE
jf 2 3 68 speed dark 9 dark 1 TRUE 0.339 FALSE TRUE
jf 2 3 69 speed light 21 light 2 TRUE 0.342 FALSE TRUE
jf 2 3 70 speed dark 9 dark 1 TRUE 0.32 FALSE TRUE
jf 2 3 71 speed dark 16 dark 1 TRUE 0.329 FALSE TRUE
jf 2 3 72 speed dark 6 dark 1 TRUE 0.281 FALSE TRUE
jf 2 3 73 speed dark 7 dark 1 TRUE 0.298 FALSE TRUE
jf 2 3 74 speed light 25 light 2 TRUE 0.261 FALSE TRUE
jf 2 3 75 speed light 19 light 2 TRUE 0.396 FALSE TRUE
jf 2 3 76 speed dark 20 light 2 FALSE 0.28 FALSE FALSE
jf 2 3 77 speed light 13 dark 1 FALSE 0.245 FALSE FALSE
jf 2 3 78 speed dark 32 light 2 FALSE 0.336 FALSE FALSE
jf 2 3 79 speed dark 0 dark 1 TRUE 0.312 FALSE TRUE
jf 2 3 80 speed dark 15 light 2 FALSE 0.36 FALSE FALSE
jf 2 3 81 speed light 29 light 2 TRUE 0.307 FALSE TRUE
jf 2 3 82 speed light 8 dark 1 FALSE 0.352 FALSE FALSE
jf 2 3 83 speed light 30 light 2 TRUE 0.235 FALSE TRUE
jf 2 3 84 speed light 27 light 2 TRUE 0.281 FALSE TRUE
jf 2 3 85 speed dark 15 light 2 FALSE 0.264 FALSE FALSE
jf 2 3 86 speed dark 3 dark 1 TRUE 0.263 FALSE TRUE
jf 2 3 87 speed light 22 light 2 TRUE 0.293 FALSE TRUE
jf 2 3 88 speed dark 12 dark 1 TRUE 0.221 FALSE TRUE
jf 2 3 89 speed dark 10 dark 1 TRUE 0.346 FALSE TRUE
jf 2 3 90 speed dark 14 dark 1 TRUE 0.282 FALSE TRUE
jf 2 3 91 speed light 28 light 2 TRUE 0.226 FALSE TRUE
jf 2 3 92 speed dark 8 light 2 FALSE 0.283 FALSE FALSE
jf 2 3 93 speed dark 16 dark 1 TRUE 0.345 FALSE TRUE
jf 2 3 94 speed dark 23 light 2 FALSE 0.227 FALSE FALSE
jf 2 3 95 speed dark 11 dark 1 TRUE 0.279 FALSE TRUE
jf 2 3 96 speed dark 17 light 2 FALSE 0.311 FALSE FALSE
jf 2 3 97 speed dark 13 dark 1 TRUE 0.246 FALSE TRUE
jf 2 3 98 speed dark 18 dark 1 TRUE 0.265 FALSE TRUE
jf 2 3 99 speed light 22 dark 1 FALSE 0.298 FALSE FALSE
jf 2 3 100 speed light 24 light 2 TRUE 0.26 FALSE TRUE
jf 2 3 101 speed light 21 light 2 TRUE 0.348 FALSE TRUE
jf 2 3 102 speed dark 12 dark 1 TRUE 0.402 FALSE TRUE
jf 2 4 2 speed light 22 light 2 TRUE 0.319 FALSE TRUE
jf 2 4 3 speed light 25 light 2 TRUE 0.297 FALSE TRUE
jf 2 4 4 speed dark 17 dark 1 TRUE 0.367 FALSE TRUE
jf 2 4 5 speed light 24 light 2 TRUE 0.261 FALSE TRUE
jf 2 4 6 speed dark 15 light 2 FALSE 0.28 FALSE FALSE
jf 2 4 7 speed light 27 dark 1 FALSE 0.279 FALSE FALSE
jf 2 4 8 speed dark 20 light 2 FALSE 0.318 FALSE FALSE
jf 2 4 9 speed light 26 light 2 TRUE 0.291 FALSE TRUE
jf 2 4 10 speed light 27 light 2 TRUE 0.281 FALSE TRUE
jf 2 4 11 speed dark 15 dark 1 TRUE 0.346 FALSE TRUE
jf 2 4 12 speed light 20 dark 1 FALSE 0.364 FALSE FALSE
jf 2 4 13 speed dark 10 dark 1 TRUE 0.358 FALSE TRUE
jf 2 4 14 speed dark 7 dark 1 TRUE 0.298 FALSE TRUE
jf 2 4 15 speed dark 8 dark 1 TRUE 0.266 FALSE TRUE
jf 2 4 16 speed light 22 light 2 TRUE 0.244 FALSE TRUE
jf 2 4 17 speed light 19 light 2 TRUE 0.249 FALSE TRUE
jf 2 4 18 speed light 15 dark 1 FALSE 0.254 FALSE FALSE
jf 2 4 19 speed dark 6 dark 1 TRUE 0.341 FALSE TRUE
jf 2 4 20 speed light 8 light 2 TRUE 0.31 FALSE TRUE
jf 2 4 21 speed dark 6 dark 1 TRUE 0.329 FALSE TRUE
jf 2 4 22 speed light 20 light 2 TRUE 0.31 FALSE TRUE
jf 2 4 23 speed light 9 dark 1 FALSE 0.269 FALSE FALSE
jf 2 4 24 speed dark 4 dark 1 TRUE 0.273 FALSE TRUE
jf 2 4 25 speed light 7 dark 1 FALSE 0.297 FALSE FALSE
jf 2 4 26 speed light 19 dark 1 FALSE 0.242 FALSE FALSE
jf 2 4 27 speed light 19 light 2 TRUE 0.276 FALSE TRUE
jf 2 4 28 speed dark 10 dark 1 TRUE 0.27 FALSE TRUE
jf 2 4 29 speed light 23 light 2 TRUE 0.259 FALSE TRUE
jf 2 4 30 speed light 29 dark 1 FALSE 0.236 FALSE FALSE
jf 2 4 31 speed light 15 light 2 TRUE 0.336 FALSE TRUE
jf 2 4 32 speed light 19 light 2 TRUE 0.324 FALSE TRUE
jf 2 4 33 speed light 24 light 2 TRUE 0.264 FALSE TRUE
jf 2 4 34 speed dark 8 dark 1 TRUE 0.351 FALSE TRUE
jf 2 4 35 speed dark 14 dark 1 TRUE 0.297 FALSE TRUE
jf 2 4 36 speed light 22 light 2 TRUE 0.293 FALSE TRUE
jf 2 4 37 speed dark 17 dark 1 TRUE 0.302 FALSE TRUE
jf 2 4 38 speed dark 9 dark 1 TRUE 0.299 FALSE TRUE
jf 2 4 39 speed light 29 light 2 TRUE 0.277 FALSE TRUE
jf 2 4 40 speed dark 5 dark 1 TRUE 0.22 FALSE TRUE
jf 2 4 41 speed light 20 light 2 TRUE 0.243 FALSE TRUE
jf 2 4 42 speed dark 11 dark 1 TRUE 0.287 FALSE TRUE
jf 2 4 43 speed dark 12 dark 1 TRUE 0.331 FALSE TRUE
jf 2 4 44 speed dark 11 dark 1 TRUE 0.315 FALSE TRUE
jf 2 4 45 speed dark 9 dark 1 TRUE 0.281 FALSE TRUE
jf 2 4 46 speed light 10 dark 1 FALSE 0.282 FALSE FALSE
jf 2 4 47 speed dark 12 light 2 FALSE 0.385 FALSE FALSE
jf 2 4 48 speed dark 18 dark 1 TRUE 0.296 FALSE TRUE
jf 2 4 49 speed dark 16 light 2 FALSE 0.44 FALSE FALSE
jf 2 4 50 speed dark 12 dark 1 TRUE 0.279 FALSE TRUE
jf 2 4 51 speed light 16 dark 1 FALSE 0.248 FALSE FALSE
jf 2 4 52 speed dark 8 dark 1 TRUE 0.324 FALSE TRUE
jf 2 4 53 speed dark 12 dark 1 TRUE 0.297 FALSE TRUE
jf 2 4 54 speed dark 18 light 2 FALSE 0.316 FALSE FALSE
jf 2 4 55 speed light 26 light 2 TRUE 0.406 FALSE TRUE
jf 2 4 56 speed dark 14 dark 1 TRUE 0.369 FALSE TRUE
jf 2 4 57 speed light 25 light 2 TRUE 0.342 FALSE TRUE
jf 2 4 58 speed light 17 light 2 TRUE 0.314 FALSE TRUE
jf 2 4 59 speed dark 19 light 2 FALSE 0.314 FALSE FALSE
jf 2 4 60 speed dark 5 dark 1 TRUE 0.297 FALSE TRUE
jf 2 4 61 speed light 14 light 2 TRUE 0.342 FALSE TRUE
jf 2 4 62 speed light 23 light 2 TRUE 0.397 FALSE TRUE
jf 2 4 63 speed light 14 dark 1 FALSE 0.351 FALSE FALSE
jf 2 4 64 speed dark 11 dark 1 TRUE 0.341 FALSE TRUE
jf 2 4 65 speed dark 21 light 2 FALSE 0.326 FALSE FALSE
jf 2 4 66 speed light 12 light 2 TRUE 0.324 FALSE TRUE
jf 2 4 67 speed light 13 light 2 TRUE 0.363 FALSE TRUE
jf 2 4 68 speed light 22 light 2 TRUE 0.364 FALSE TRUE
jf 2 4 69 speed dark 12 dark 1 TRUE 0.401 FALSE TRUE
jf 2 4 70 speed light 15 light 2 TRUE 0.327 FALSE TRUE
jf 2 4 71 speed dark 9 light 2 FALSE 0.479 FALSE FALSE
jf 2 4 72 speed dark 15 light 2 FALSE 0.507 FALSE FALSE
jf 2 4 73 speed light 14 dark 1 FALSE 0.409 FALSE FALSE
jf 2 4 74 speed dark 4 dark 1 TRUE 0.291 FALSE TRUE
jf 2 4 75 speed dark 22 light 2 FALSE 0.392 FALSE FALSE
jf 2 4 76 speed dark 18 light 2 FALSE 0.357 FALSE FALSE
jf 2 4 77 speed dark 5 dark 1 TRUE 0.295 FALSE TRUE
jf 2 4 78 speed dark 8 dark 1 TRUE 0.364 FALSE TRUE
jf 2 4 79 speed light 24 light 2 TRUE 0.358 FALSE TRUE
jf 2 4 80 speed light 13 dark 1 FALSE 0.27 FALSE FALSE
jf 2 4 81 speed light 24 light 2 TRUE 0.287 FALSE TRUE
jf 2 4 82 speed dark 13 dark 1 TRUE 0.287 FALSE TRUE
jf 2 4 83 speed light 20 light 2 TRUE 0.294 FALSE TRUE
jf 2 4 84 speed light 15 dark 1 FALSE 0.287 FALSE FALSE
jf 2 4 85 speed dark 6 dark 1 TRUE 0.391 FALSE TRUE
jf 2 4 86 speed dark 6 dark 1 TRUE 0.333 FALSE TRUE
jf 2 4 87 speed light 16 dark 1 FALSE 0.281 FALSE FALSE
jf 2 4 88 speed dark 8 dark 1 TRUE 0.306 FALSE TRUE
jf 2 4 89 speed dark 6 dark 1 TRUE 0.33 FALSE TRUE
jf 2 4 90 speed dark 7 dark 1 TRUE 0.297 FALSE TRUE
jf 2 4 91 speed light 12 dark 1 FALSE 0.282 FALSE FALSE
jf 2 4 92 speed dark 26 light 2 FALSE 0.304 FALSE FALSE
jf 2 4 93 speed dark 5 dark 1 TRUE 0.313 FALSE TRUE
jf 2 4 94 speed light 27 light 2 TRUE 0.294 FALSE TRUE
jf 2 4 95 speed dark 4 dark 1 TRUE 0.353 FALSE TRUE
jf 2 4 96 speed light 19 light 2 TRUE 0.276 FALSE TRUE
jf 2 4 97 speed dark 5 dark 1 TRUE 0.303 FALSE TRUE
jf 2 4 98 speed light 25 light 2 TRUE 0.261 FALSE TRUE
jf 2 4 99 speed light 26 light 2 TRUE 0.348 FALSE TRUE
jf 2 4 100 speed light 11 dark 1 FALSE 0.304 FALSE FALSE
jf 2 4 101 speed light 8 dark 1 FALSE 0.324 FALSE FALSE
jf 2 4 102 speed light 22 light 2 TRUE 0.286 FALSE TRUE
jf 2 5 2 accuracy dark 14 dark 1 TRUE 0.961 FALSE TRUE
jf 2 5 3 accuracy light 15 light 2 TRUE 1.189 FALSE TRUE
jf 2 5 4 accuracy light 9 dark 1 FALSE 1.313 FALSE FALSE
jf 2 5 5 accuracy light 19 light 2 TRUE 1.231 FALSE TRUE
jf 2 5 6 accuracy light 13 dark 1 FALSE 1.545 FALSE FALSE
jf 2 5 7 accuracy light 16 light 2 TRUE 1.23 FALSE TRUE
jf 2 5 8 accuracy dark 19 light 2 FALSE 1.34 FALSE FALSE
jf 2 5 9 accuracy dark 12 dark 1 TRUE 0.975 FALSE TRUE
jf 2 5 10 accuracy light 20 light 2 TRUE 1.519 FALSE TRUE
jf 2 5 11 accuracy dark 16 dark 1 TRUE 2.736 TRUE TRUE
jf 2 5 12 accuracy light 16 light 2 TRUE 1.138 FALSE TRUE
jf 2 5 13 accuracy light 16 light 2 TRUE 1.888 FALSE TRUE
jf 2 5 14 accuracy dark 5 dark 1 TRUE 0.718 FALSE TRUE
jf 2 5 15 accuracy light 21 light 2 TRUE 0.826 FALSE TRUE
jf 2 5 16 accuracy light 10 dark 1 FALSE 1.827 FALSE FALSE
jf 2 5 17 accuracy dark 4 dark 1 TRUE 0.856 FALSE TRUE
jf 2 5 18 accuracy dark 23 light 2 FALSE 0.743 FALSE FALSE
jf 2 5 19 accuracy light 20 light 2 TRUE 0.938 FALSE TRUE
jf 2 5 20 accuracy light 18 light 2 TRUE 1.392 FALSE TRUE
jf 2 5 21 accuracy dark 2 dark 1 TRUE 0.785 FALSE TRUE
jf 2 5 22 accuracy dark 16 light 2 FALSE 1.056 FALSE FALSE
jf 2 5 23 accuracy light 19 light 2 TRUE 2.574 TRUE TRUE
jf 2 5 24 accuracy light 30 light 2 TRUE 1.043 FALSE TRUE
jf 2 5 25 accuracy dark 20 light 2 FALSE 2.565 TRUE FALSE
jf 2 5 26 accuracy light 21 light 2 TRUE 1.153 FALSE TRUE
jf 2 5 27 accuracy light 6 dark 1 FALSE 0.782 FALSE FALSE
jf 2 5 28 accuracy light 17 dark 1 FALSE 4.246 TRUE FALSE
jf 2 5 29 accuracy light 21 light 2 TRUE 0.997 FALSE TRUE
jf 2 5 30 accuracy light 15 dark 1 FALSE 1.247 FALSE FALSE
jf 2 5 31 accuracy dark 14 dark 1 TRUE 0.721 FALSE TRUE
jf 2 5 32 accuracy light 22 light 2 TRUE 1.105 FALSE TRUE
jf 2 5 33 accuracy dark 13 dark 1 TRUE 1.33 FALSE TRUE
jf 2 5 34 accuracy dark 8 dark 1 TRUE 1.689 FALSE TRUE
jf 2 5 35 accuracy dark 16 light 2 FALSE 1.418 FALSE FALSE
jf 2 5 36 accuracy light 20 light 2 TRUE 1.101 FALSE TRUE
jf 2 5 37 accuracy light 5 dark 1 FALSE 2.321 FALSE FALSE
jf 2 5 38 accuracy light 24 light 2 TRUE 0.767 FALSE TRUE
jf 2 5 39 accuracy light 27 light 2 TRUE 1.489 FALSE TRUE
jf 2 5 40 accuracy dark 15 light 2 FALSE 4.102 TRUE FALSE
jf 2 5 41 accuracy light 21 light 2 TRUE 0.769 FALSE TRUE
jf 2 5 42 accuracy dark 1 dark 1 TRUE 0.867 FALSE TRUE
jf 2 5 43 accuracy light 10 light 2 TRUE 2.759 TRUE TRUE
jf 2 5 44 accuracy dark 13 light 2 FALSE 1.804 FALSE FALSE
jf 2 5 45 accuracy dark 19 light 2 FALSE 3.928 TRUE FALSE
jf 2 5 46 accuracy light 24 light 2 TRUE 1.086 FALSE TRUE
jf 2 5 47 accuracy light 0 dark 1 FALSE 0.633 FALSE FALSE
jf 2 5 48 accuracy light 15 dark 1 FALSE 4.393 TRUE FALSE
jf 2 5 49 accuracy dark 9 dark 1 TRUE 0.671 FALSE TRUE
jf 2 5 50 accuracy light 26 light 2 TRUE 0.776 FALSE TRUE
jf 2 5 51 accuracy dark 11 dark 1 TRUE 0.75 FALSE TRUE
jf 2 5 52 accuracy dark 12 dark 1 TRUE 0.78 FALSE TRUE
jf 2 5 53 accuracy dark 15 light 2 FALSE 1.105 FALSE FALSE
jf 2 5 54 accuracy dark 21 light 2 FALSE 0.558 FALSE FALSE
jf 2 5 55 accuracy dark 17 dark 1 TRUE 1.107 FALSE TRUE
jf 2 5 56 accuracy dark 18 dark 1 TRUE 1.226 FALSE TRUE
jf 2 5 57 accuracy light 14 dark 1 FALSE 0.746 FALSE FALSE
jf 2 5 58 accuracy dark 21 light 2 FALSE 0.719 FALSE FALSE
jf 2 5 59 accuracy light 24 light 2 TRUE 0.77 FALSE TRUE
jf 2 5 60 accuracy light 16 light 2 TRUE 2.633 TRUE TRUE
jf 2 5 61 accuracy dark 15 dark 1 TRUE 4.569 TRUE TRUE
jf 2 5 62 accuracy dark 14 dark 1 TRUE 4.285 TRUE TRUE
jf 2 5 63 accuracy dark 16 light 2 FALSE 2.13 FALSE FALSE
jf 2 5 64 accuracy dark 13 dark 1 TRUE 1.058 FALSE TRUE
jf 2 5 65 accuracy dark 26 light 2 FALSE 0.675 FALSE FALSE
jf 2 5 66 accuracy dark 17 light 2 FALSE 1.846 FALSE FALSE
jf 2 5 67 accuracy dark 2 dark 1 TRUE 0.693 FALSE TRUE
jf 2 5 68 accuracy dark 10 dark 1 TRUE 1.523 FALSE TRUE
jf 2 5 69 accuracy light 8 dark 1 FALSE 0.86 FALSE FALSE
jf 2 5 70 accuracy light 27 light 2 TRUE 0.801 FALSE TRUE
jf 2 5 71 accuracy light 20 light 2 TRUE 6.301 TRUE TRUE
jf 2 5 72 accuracy light 20 light 2 TRUE 2.714 TRUE TRUE
jf 2 5 73 accuracy light 28 light 2 TRUE 1.506 FALSE TRUE
jf 2 5 74 accuracy light 16 light 2 TRUE 2.583 TRUE TRUE
jf 2 5 75 accuracy light 23 light 2 TRUE 1.588 FALSE TRUE
jf 2 5 76 accuracy dark 9 dark 1 TRUE 1.117 FALSE TRUE
jf 2 5 77 accuracy dark 11 dark 1 TRUE 1.275 FALSE TRUE
jf 2 5 78 accuracy dark 12 dark 1 TRUE 1.144 FALSE TRUE
jf 2 5 79 accuracy dark 12 dark 1 TRUE 1.358 FALSE TRUE
jf 2 5 80 accuracy light 30 light 2 TRUE 1.106 FALSE TRUE
jf 2 5 81 accuracy dark 11 dark 1 TRUE 0.768 FALSE TRUE
jf 2 5 82 accuracy dark 12 dark 1 TRUE 1.839 FALSE TRUE
jf 2 5 83 accuracy dark 0 dark 1 TRUE 0.995 FALSE TRUE
jf 2 5 84 accuracy dark 8 dark 1 TRUE 0.963 FALSE TRUE
jf 2 5 85 accuracy light 7 dark 1 FALSE 1.027 FALSE FALSE
jf 2 5 86 accuracy dark 6 dark 1 TRUE 3.716 TRUE TRUE
jf 2 5 87 accuracy light 24 light 2 TRUE 0.907 FALSE TRUE
jf 2 5 88 accuracy light 17 light 2 TRUE 3.443 TRUE TRUE
jf 2 5 89 accuracy light 24 light 2 TRUE 1.936 FALSE TRUE
jf 2 5 90 accuracy light 10 dark 1 FALSE 1.149 FALSE FALSE
jf 2 5 91 accuracy dark 11 dark 1 TRUE 2.029 FALSE TRUE
jf 2 5 92 accuracy dark 11 dark 1 TRUE 4.915 TRUE TRUE
jf 2 5 93 accuracy light 13 light 2 TRUE 3.008 TRUE TRUE
jf 2 5 94 accuracy dark 11 dark 1 TRUE 1.81 FALSE TRUE
jf 2 5 95 accuracy light 22 light 2 TRUE 1.14 FALSE TRUE
jf 2 5 96 accuracy light 22 light 2 TRUE 1.344 FALSE TRUE
jf 2 5 97 accuracy dark 20 light 2 FALSE 2.071 FALSE FALSE
jf 2 5 98 accuracy dark 7 dark 1 TRUE 1.14 FALSE TRUE
jf 2 5 99 accuracy light 21 dark 1 FALSE 3.443 TRUE FALSE
jf 2 5 100 accuracy light 25 light 2 TRUE 0.862 FALSE TRUE
jf 2 5 101 accuracy light 16 light 2 TRUE 2.532 TRUE TRUE
jf 2 5 102 accuracy light 30 light 2 TRUE 1.095 FALSE TRUE
jf 2 6 2 accuracy dark 17 light 2 FALSE 0.84 FALSE FALSE
jf 2 6 3 accuracy dark 17 dark 1 TRUE 3.555 TRUE TRUE
jf 2 6 4 accuracy light 21 light 2 TRUE 1.567 FALSE TRUE
jf 2 6 5 accuracy dark 19 light 2 FALSE 3.195 TRUE FALSE
jf 2 6 6 accuracy light 19 light 2 TRUE 3.962 TRUE TRUE
jf 2 6 7 accuracy dark 9 dark 1 TRUE 0.818 FALSE TRUE
jf 2 6 8 accuracy light 18 light 2 TRUE 1.701 FALSE TRUE
jf 2 6 9 accuracy light 16 dark 1 FALSE 1.512 FALSE FALSE
jf 2 6 10 accuracy dark 15 light 2 FALSE 1.114 FALSE FALSE
jf 2 6 11 accuracy light 15 light 2 TRUE 4.064 TRUE TRUE
jf 2 6 12 accuracy dark 8 dark 1 TRUE 0.834 FALSE TRUE
jf 2 6 13 accuracy light 20 light 2 TRUE 0.957 FALSE TRUE
jf 2 6 14 accuracy light 21 light 2 TRUE 1.392 FALSE TRUE
jf 2 6 15 accuracy dark 0 dark 1 TRUE 1.265 FALSE TRUE
jf 2 6 16 accuracy light 24 light 2 TRUE 0.973 FALSE TRUE
jf 2 6 17 accuracy dark 15 dark 1 TRUE 3.878 TRUE TRUE
jf 2 6 18 accuracy light 27 light 2 TRUE 0.957 FALSE TRUE
jf 2 6 19 accuracy dark 17 light 2 FALSE 2.169 FALSE FALSE
jf 2 6 20 accuracy dark 10 dark 1 TRUE 2.298 FALSE TRUE
jf 2 6 21 accuracy light 25 light 2 TRUE 1.038 FALSE TRUE
jf 2 6 22 accuracy dark 15 dark 1 TRUE 1.545 FALSE TRUE
jf 2 6 23 accuracy light 21 light 2 TRUE 1.335 FALSE TRUE
jf 2 6 24 accuracy dark 8 dark 1 TRUE 0.915 FALSE TRUE
jf 2 6 25 accuracy light 15 dark 1 FALSE 1.06 FALSE FALSE
jf 2 6 26 accuracy light 21 light 2 TRUE 1.462 FALSE TRUE
jf 2 6 27 accuracy dark 10 dark 1 TRUE 1.13 FALSE TRUE
jf 2 6 28 accuracy light 12 dark 1 FALSE 1.473 FALSE FALSE
jf 2 6 29 accuracy light 17 light 2 TRUE 1.363 FALSE TRUE
jf 2 6 30 accuracy light 9 dark 1 FALSE 1.231 FALSE FALSE
jf 2 6 31 accuracy light 11 dark 1 FALSE 2.143 FALSE FALSE
jf 2 6 32 accuracy light 14 light 2 TRUE 1.609 FALSE TRUE
jf 2 6 33 accuracy dark 8 dark 1 TRUE 0.784 FALSE TRUE
jf 2 6 34 accuracy light 18 light 2 TRUE 1.453 FALSE TRUE
jf 2 6 35 accuracy dark 17 light 2 FALSE 1.357 FALSE FALSE
jf 2 6 36 accuracy light 23 light 2 TRUE 0.673 FALSE TRUE
jf 2 6 37 accuracy light 29 light 2 TRUE 0.647 FALSE TRUE
jf 2 6 38 accuracy light 19 light 2 TRUE 1.044 FALSE TRUE
jf 2 6 39 accuracy light 16 dark 1 FALSE 1.347 FALSE FALSE
jf 2 6 40 accuracy dark 11 dark 1 TRUE 0.854 FALSE TRUE
jf 2 6 41 accuracy dark 0 dark 1 TRUE 0.712 FALSE TRUE
jf 2 6 42 accuracy dark 9 dark 1 TRUE 1.391 FALSE TRUE
jf 2 6 43 accuracy dark 16 light 2 FALSE 0.757 FALSE FALSE
jf 2 6 44 accuracy dark 12 dark 1 TRUE 1.043 FALSE TRUE
jf 2 6 45 accuracy dark 14 dark 1 TRUE 2.152 FALSE TRUE
jf 2 6 46 accuracy dark 15 dark 1 TRUE 2.217 FALSE TRUE
jf 2 6 47 accuracy dark 10 dark 1 TRUE 1.109 FALSE TRUE
jf 2 6 48 accuracy light 16 light 2 TRUE 1.42 FALSE TRUE
jf 2 6 49 accuracy light 21 light 2 TRUE 1.389 FALSE TRUE
jf 2 6 50 accuracy light 25 light 2 TRUE 1.341 FALSE TRUE
jf 2 6 51 accuracy light 18 light 2 TRUE 2.169 FALSE TRUE
jf 2 6 52 accuracy light 24 light 2 TRUE 1.159 FALSE TRUE
jf 2 6 53 accuracy dark 13 dark 1 TRUE 1.445 FALSE TRUE
jf 2 6 54 accuracy light 19 light 2 TRUE 1.388 FALSE TRUE
jf 2 6 55 accuracy dark 17 light 2 FALSE 1.953 FALSE FALSE
jf 2 6 56 accuracy light 16 dark 1 FALSE 1.075 FALSE FALSE
jf 2 6 57 accuracy dark 18 dark 1 TRUE 1.45 FALSE TRUE
jf 2 6 58 accuracy dark 15 dark 1 TRUE 1.293 FALSE TRUE
jf 2 6 59 accuracy light 20 light 2 TRUE 1.32 FALSE TRUE
jf 2 6 60 accuracy light 21 light 2 TRUE 1.392 FALSE TRUE
jf 2 6 61 accuracy dark 15 dark 1 TRUE 1.098 FALSE TRUE
jf 2 6 62 accuracy dark 8 dark 1 TRUE 0.912 FALSE TRUE
jf 2 6 63 accuracy light 14 dark 1 FALSE 1.093 FALSE FALSE
jf 2 6 64 accuracy light 19 light 2 TRUE 0.751 FALSE TRUE
jf 2 6 65 accuracy dark 9 dark 1 TRUE 0.685 FALSE TRUE
jf 2 6 66 accuracy dark 14 dark 1 TRUE 0.845 FALSE TRUE
jf 2 6 67 accuracy light 24 light 2 TRUE 0.824 FALSE TRUE
jf 2 6 68 accuracy dark 18 light 2 FALSE 0.895 FALSE FALSE
jf 2 6 69 accuracy dark 13 dark 1 TRUE 0.709 FALSE TRUE
jf 2 6 70 accuracy light 24 light 2 TRUE 0.743 FALSE TRUE
jf 2 6 71 accuracy light 27 light 2 TRUE 0.729 FALSE TRUE
jf 2 6 72 accuracy light 26 light 2 TRUE 0.846 FALSE TRUE
jf 2 6 73 accuracy dark 9 dark 1 TRUE 0.651 FALSE TRUE
jf 2 6 74 accuracy dark 16 light 2 FALSE 1.405 FALSE FALSE
jf 2 6 75 accuracy light 22 light 2 TRUE 0.969 FALSE TRUE
jf 2 6 76 accuracy dark 12 dark 1 TRUE 1.098 FALSE TRUE
jf 2 6 77 accuracy dark 7 dark 1 TRUE 0.664 FALSE TRUE
jf 2 6 78 accuracy light 12 dark 1 FALSE 0.697 FALSE FALSE
jf 2 6 79 accuracy light 16 dark 1 FALSE 1.068 FALSE FALSE
jf 2 6 80 accuracy dark 26 light 2 FALSE 0.602 FALSE FALSE
jf 2 6 81 accuracy dark 8 dark 1 TRUE 0.825 FALSE TRUE
jf 2 6 82 accuracy light 14 dark 1 FALSE 2.021 FALSE FALSE
jf 2 6 83 accuracy dark 16 light 2 FALSE 1.757 FALSE FALSE
jf 2 6 84 accuracy light 18 light 2 TRUE 0.838 FALSE TRUE
jf 2 6 85 accuracy dark 4 dark 1 TRUE 1.048 FALSE TRUE
jf 2 6 86 accuracy light 17 light 2 TRUE 1.469 FALSE TRUE
jf 2 6 87 accuracy light 13 dark 1 FALSE 0.883 FALSE FALSE
jf 2 6 88 accuracy light 23 light 2 TRUE 0.884 FALSE TRUE
jf 2 6 89 accuracy dark 11 dark 1 TRUE 0.735 FALSE TRUE
jf 2 6 90 accuracy light 27 light 2 TRUE 0.876 FALSE TRUE
jf 2 6 91 accuracy light 26 light 2 TRUE 0.796 FALSE TRUE
jf 2 6 92 accuracy dark 13 dark 1 TRUE 0.721 FALSE TRUE
jf 2 6 93 accuracy dark 3 dark 1 TRUE 0.748 FALSE TRUE
jf 2 6 94 accuracy light 15 light 2 TRUE 1.239 FALSE TRUE
jf 2 6 95 accuracy light 13 dark 1 FALSE 1.183 FALSE FALSE
jf 2 6 96 accuracy light 16 light 2 TRUE 3.843 TRUE TRUE
jf 2 6 97 accuracy dark 8 dark 1 TRUE 0.834 FALSE TRUE
jf 2 6 98 accuracy light 18 light 2 TRUE 0.793 FALSE TRUE
jf 2 6 99 accuracy light 12 dark 1 FALSE 0.951 FALSE FALSE
jf 2 6 100 accuracy dark 13 light 2 FALSE 0.901 FALSE FALSE
jf 2 6 101 accuracy dark 10 dark 1 TRUE 0.812 FALSE TRUE
jf 2 6 102 accuracy light 31 light 2 TRUE 0.926 FALSE TRUE
jf 2 7 2 speed dark 7 dark 1 TRUE 0.334 FALSE TRUE
jf 2 7 3 speed light 17 dark 1 FALSE 0.364 FALSE FALSE
jf 2 7 4 speed dark 5 dark 1 TRUE 0.329 FALSE TRUE
jf 2 7 5 speed dark 10 dark 1 TRUE 0.281 FALSE TRUE
jf 2 7 6 speed light 15 dark 1 FALSE 0.363 FALSE FALSE
jf 2 7 7 speed light 15 dark 1 FALSE 0.291 FALSE FALSE
jf 2 7 8 speed dark 20 light 2 FALSE 0.303 FALSE FALSE
jf 2 7 9 speed dark 19 light 2 FALSE 0.291 FALSE FALSE
jf 2 7 10 speed light 22 light 2 TRUE 0.538 FALSE TRUE
jf 2 7 11 speed light 22 light 2 TRUE 0.354 FALSE TRUE
jf 2 7 12 speed light 14 dark 1 FALSE 0.318 FALSE FALSE
jf 2 7 13 speed dark 10 dark 1 TRUE 0.274 FALSE TRUE
jf 2 7 14 speed dark 2 dark 1 TRUE 0.297 FALSE TRUE
jf 2 7 15 speed dark 4 dark 1 TRUE 0.247 FALSE TRUE
jf 2 7 16 speed light 18 light 2 TRUE 0.343 FALSE TRUE
jf 2 7 17 speed light 21 light 2 TRUE 0.248 FALSE TRUE
jf 2 7 18 speed dark 8 dark 1 TRUE 0.227 FALSE TRUE
jf 2 7 19 speed dark 2 dark 1 TRUE 0.248 FALSE TRUE
jf 2 7 20 speed dark 10 dark 1 TRUE 0.298 FALSE TRUE
jf 2 7 21 speed dark 17 light 2 FALSE 0.244 FALSE FALSE
jf 2 7 22 speed light 17 dark 1 FALSE 0.196 TRUE FALSE
jf 2 7 23 speed dark 4 dark 1 TRUE 0.307 FALSE TRUE
jf 2 7 24 speed dark 17 light 2 FALSE 0.243 FALSE FALSE
jf 2 7 25 speed light 24 dark 1 FALSE 0.262 FALSE FALSE
jf 2 7 26 speed light 23 light 2 TRUE 0.335 FALSE TRUE
jf 2 7 27 speed dark 8 dark 1 TRUE 0.317 FALSE TRUE
jf 2 7 28 speed dark 16 dark 1 TRUE 0.315 FALSE TRUE
jf 2 7 29 speed light 29 light 2 TRUE 0.226 FALSE TRUE
jf 2 7 30 speed light 15 dark 1 FALSE 0.353 FALSE FALSE
jf 2 7 31 speed dark 26 light 2 FALSE 0.251 FALSE FALSE
jf 2 7 32 speed dark 7 dark 1 TRUE 0.33 FALSE TRUE
jf 2 7 33 speed light 14 light 2 TRUE 0.258 FALSE TRUE
jf 2 7 34 speed dark 12 dark 1 TRUE 0.336 FALSE TRUE
jf 2 7 35 speed dark 11 dark 1 TRUE 0.313 FALSE TRUE
jf 2 7 36 speed light 19 light 2 TRUE 0.258 FALSE TRUE
jf 2 7 37 speed light 25 dark 1 FALSE 0.237 FALSE FALSE
jf 2 7 38 speed dark 21 light 2 FALSE 0.262 FALSE FALSE
jf 2 7 39 speed dark 16 dark 1 TRUE 0.261 FALSE TRUE
jf 2 7 40 speed dark 1 dark 1 TRUE 0.298 FALSE TRUE
jf 2 7 41 speed dark 1 light 2 FALSE 0.309 FALSE FALSE
jf 2 7 42 speed light 20 light 2 TRUE 0.315 FALSE TRUE
jf 2 7 43 speed light 14 light 2 TRUE 0.28 FALSE TRUE
jf 2 7 44 speed light 21 dark 1 FALSE 0.22 FALSE FALSE
jf 2 7 45 speed dark 18 light 2 FALSE 0.268 FALSE FALSE
jf 2 7 46 speed light 32 light 2 TRUE 0.341 FALSE TRUE
jf 2 7 47 speed light 20 light 2 TRUE 0.345 FALSE TRUE
jf 2 7 48 speed dark 19 dark 1 TRUE 0.252 FALSE TRUE
jf 2 7 49 speed dark 20 light 2 FALSE 0.291 FALSE FALSE
jf 2 7 50 speed dark 12 dark 1 TRUE 0.296 FALSE TRUE
jf 2 7 51 speed light 14 dark 1 FALSE 0.296 FALSE FALSE
jf 2 7 52 speed dark 21 dark 1 TRUE 0.274 FALSE TRUE
jf 2 7 53 speed light 28 light 2 TRUE 0.259 FALSE TRUE
jf 2 7 54 speed light 12 dark 1 FALSE 0.369 FALSE FALSE
jf 2 7 55 speed light 15 light 2 TRUE 0.253 FALSE TRUE
jf 2 7 56 speed light 24 light 2 TRUE 0.315 FALSE TRUE
jf 2 7 57 speed light 16 light 2 TRUE 0.23 FALSE TRUE
jf 2 7 58 speed dark 8 dark 1 TRUE 0.203 FALSE TRUE
jf 2 7 59 speed light 18 light 2 TRUE 0.259 FALSE TRUE
jf 2 7 60 speed dark 14 dark 1 TRUE 0.269 FALSE TRUE
jf 2 7 61 speed light 23 light 2 TRUE 0.242 FALSE TRUE
jf 2 7 62 speed light 16 dark 1 FALSE 0.221 FALSE FALSE
jf 2 7 63 speed light 15 light 2 TRUE 0.252 FALSE TRUE
jf 2 7 64 speed light 15 light 2 TRUE 0.266 FALSE TRUE
jf 2 7 65 speed dark 11 dark 1 TRUE 0.236 FALSE TRUE
jf 2 7 66 speed dark 6 light 2 FALSE 0.242 FALSE FALSE
jf 2 7 67 speed light 20 light 2 TRUE 0.257 FALSE TRUE
jf 2 7 68 speed dark 3 dark 1 TRUE 0.187 TRUE TRUE
jf 2 7 69 speed light 19 dark 1 FALSE 0.23 FALSE FALSE
jf 2 7 70 speed dark 13 dark 1 TRUE 0.324 FALSE TRUE
jf 2 7 71 speed dark 16 dark 1 TRUE 0.329 FALSE TRUE
jf 2 7 72 speed dark 8 dark 1 TRUE 0.281 FALSE TRUE
jf 2 7 73 speed dark 4 light 2 FALSE 0.243 FALSE FALSE
jf 2 7 74 speed light 19 light 2 TRUE 0.324 FALSE TRUE
jf 2 7 75 speed dark 12 dark 1 TRUE 0.318 FALSE TRUE
jf 2 7 76 speed light 31 light 2 TRUE 0.211 FALSE TRUE
jf 2 7 77 speed dark 14 dark 1 TRUE 0.418 FALSE TRUE
jf 2 7 78 speed dark 13 light 2 FALSE 0.245 FALSE FALSE
jf 2 7 79 speed dark 9 dark 1 TRUE 0.379 FALSE TRUE
jf 2 7 80 speed dark 16 light 2 FALSE 0.443 FALSE FALSE
jf 2 7 81 speed light 25 light 2 TRUE 0.356 FALSE TRUE
jf 2 7 82 speed light 20 light 2 TRUE 0.349 FALSE TRUE
jf 2 7 83 speed dark 5 dark 1 TRUE 0.284 FALSE TRUE
jf 2 7 84 speed dark 17 light 2 FALSE 0.227 FALSE FALSE
jf 2 7 85 speed light 17 dark 1 FALSE 0.344 FALSE FALSE
jf 2 7 86 speed light 25 light 2 TRUE 0.336 FALSE TRUE
jf 2 7 87 speed dark 9 dark 1 TRUE 0.285 FALSE TRUE
jf 2 7 88 speed dark 9 dark 1 TRUE 0.332 FALSE TRUE
jf 2 7 89 speed dark 9 dark 1 TRUE 0.28 FALSE TRUE
jf 2 7 90 speed dark 7 dark 1 TRUE 0.265 FALSE TRUE
jf 2 7 91 speed light 14 dark 1 FALSE 0.315 FALSE FALSE
jf 2 7 92 speed light 18 light 2 TRUE 0.319 FALSE TRUE
jf 2 7 93 speed dark 12 dark 1 TRUE 0.303 FALSE TRUE
jf 2 7 94 speed dark 15 light 2 FALSE 0.36 FALSE FALSE
jf 2 7 95 speed dark 9 dark 1 TRUE 0.412 FALSE TRUE
jf 2 7 96 speed dark 14 dark 1 TRUE 0.265 FALSE TRUE
jf 2 7 97 speed light 29 light 2 TRUE 0.294 FALSE TRUE
jf 2 7 98 speed dark 13 light 2 FALSE 0.365 FALSE FALSE
jf 2 7 99 speed light 21 light 2 TRUE 0.48 FALSE TRUE
jf 2 7 100 speed dark 13 dark 1 TRUE 0.336 FALSE TRUE
jf 2 7 101 speed dark 4 dark 1 TRUE 0.381 FALSE TRUE
jf 2 7 102 speed dark 9 dark 1 TRUE 0.3 FALSE TRUE
jf 2 8 2 speed light 26 light 2 TRUE 0.339 FALSE TRUE
jf 2 8 3 speed dark 21 light 2 FALSE 0.297 FALSE FALSE
jf 2 8 4 speed dark 9 dark 1 TRUE 0.344 FALSE TRUE
jf 2 8 5 speed light 25 light 2 TRUE 0.31 FALSE TRUE
jf 2 8 6 speed dark 15 light 2 FALSE 0.397 FALSE FALSE
jf 2 8 7 speed light 22 light 2 TRUE 0.274 FALSE TRUE
jf 2 8 8 speed dark 6 dark 1 TRUE 0.27 FALSE TRUE
jf 2 8 9 speed light 23 dark 1 FALSE 0.265 FALSE FALSE
jf 2 8 10 speed dark 17 light 2 FALSE 0.393 FALSE FALSE
jf 2 8 11 speed dark 23 light 2 FALSE 0.34 FALSE FALSE
jf 2 8 12 speed light 21 light 2 TRUE 0.323 FALSE TRUE
jf 2 8 13 speed dark 14 dark 1 TRUE 0.352 FALSE TRUE
jf 2 8 14 speed light 5 dark 1 FALSE 0.264 FALSE FALSE
jf 2 8 15 speed light 16 dark 1 FALSE 0.274 FALSE FALSE
jf 2 8 16 speed dark 22 light 2 FALSE 0.269 FALSE FALSE
jf 2 8 17 speed light 29 light 2 TRUE 0.273 FALSE TRUE
jf 2 8 18 speed dark 7 dark 1 TRUE 0.286 FALSE TRUE
jf 2 8 19 speed light 18 dark 1 FALSE 0.331 FALSE FALSE
jf 2 8 20 speed light 22 light 2 TRUE 0.269 FALSE TRUE
jf 2 8 21 speed light 22 light 2 TRUE 0.347 FALSE TRUE
jf 2 8 22 speed dark 16 light 2 FALSE 0.265 FALSE FALSE
jf 2 8 23 speed dark 15 dark 1 TRUE 0.378 FALSE TRUE
jf 2 8 24 speed dark 11 dark 1 TRUE 0.347 FALSE TRUE
jf 2 8 25 speed dark 18 dark 1 TRUE 0.297 FALSE TRUE
jf 2 8 26 speed light 18 dark 1 FALSE 0.315 FALSE FALSE
jf 2 8 27 speed light 29 light 2 TRUE 0.334 FALSE TRUE
jf 2 8 28 speed light 28 light 2 TRUE 0.282 FALSE TRUE
jf 2 8 29 speed dark 17 dark 1 TRUE 0.385 FALSE TRUE
jf 2 8 30 speed light 26 light 2 TRUE 0.326 FALSE TRUE
jf 2 8 31 speed light 17 dark 1 FALSE 0.27 FALSE FALSE
jf 2 8 32 speed dark 12 dark 1 TRUE 0.307 FALSE TRUE
jf 2 8 33 speed dark 21 light 2 FALSE 0.209 FALSE FALSE
jf 2 8 34 speed dark 3 dark 1 TRUE 0.228 FALSE TRUE
jf 2 8 35 speed dark 0 dark 1 TRUE 0.297 FALSE TRUE
jf 2 8 36 speed dark 9 dark 1 TRUE 0.231 FALSE TRUE
jf 2 8 37 speed light 21 dark 1 FALSE 0.297 FALSE FALSE
jf 2 8 38 speed dark 16 dark 1 TRUE 0.406 FALSE TRUE
jf 2 8 39 speed dark 14 light 2 FALSE 0.342 FALSE FALSE
jf 2 8 40 speed dark 11 dark 1 TRUE 0.296 FALSE TRUE
jf 2 8 41 speed dark 17 light 2 FALSE 0.391 FALSE FALSE
jf 2 8 42 speed dark 9 dark 1 TRUE 0.312 FALSE TRUE
jf 2 8 43 speed dark 4 dark 1 TRUE 0.363 FALSE TRUE
jf 2 8 44 speed light 19 light 2 TRUE 0.393 FALSE TRUE
jf 2 8 45 speed light 15 dark 1 FALSE 0.236 FALSE FALSE
jf 2 8 46 speed dark 6 light 2 FALSE 0.352 FALSE FALSE
jf 2 8 47 speed dark 12 dark 1 TRUE 0.31 FALSE TRUE
jf 2 8 48 speed dark 10 dark 1 TRUE 0.364 FALSE TRUE
jf 2 8 49 speed dark 21 light 2 FALSE 0.359 FALSE FALSE
jf 2 8 50 speed dark 5 dark 1 TRUE 0.329 FALSE TRUE
jf 2 8 51 speed light 31 light 2 TRUE 0.375 FALSE TRUE
jf 2 8 52 speed light 21 light 2 TRUE 0.365 FALSE TRUE
jf 2 8 53 speed dark 6 dark 1 TRUE 0.318 FALSE TRUE
jf 2 8 54 speed light 20 light 2 TRUE 0.293 FALSE TRUE
jf 2 8 55 speed light 30 light 2 TRUE 0.297 FALSE TRUE
jf 2 8 56 speed dark 9 dark 1 TRUE 0.285 FALSE TRUE
jf 2 8 57 speed light 15 dark 1 FALSE 0.428 FALSE FALSE
jf 2 8 58 speed dark 20 light 2 FALSE 0.253 FALSE FALSE
jf 2 8 59 speed dark 0 dark 1 TRUE 0.345 FALSE TRUE
jf 2 8 60 speed light 22 light 2 TRUE 0.293 FALSE TRUE
jf 2 8 61 speed dark 12 dark 1 TRUE 0.335 FALSE TRUE
jf 2 8 62 speed light 25 dark 1 FALSE 0.331 FALSE FALSE
jf 2 8 63 speed light 26 light 2 TRUE 0.326 FALSE TRUE
jf 2 8 64 speed light 4 dark 1 FALSE 0.27 FALSE FALSE
jf 2 8 65 speed dark 8 dark 1 TRUE 0.306 FALSE TRUE
jf 2 8 66 speed dark 9 dark 1 TRUE 0.33 FALSE TRUE
jf 2 8 67 speed light 19 light 2 TRUE 0.242 FALSE TRUE
jf 2 8 68 speed light 17 light 2 TRUE 0.281 FALSE TRUE
jf 2 8 69 speed dark 29 light 2 FALSE 0.296 FALSE FALSE
jf 2 8 70 speed dark 9 dark 1 TRUE 0.278 FALSE TRUE
jf 2 8 71 speed dark 18 light 2 FALSE 0.241 FALSE FALSE
jf 2 8 72 speed light 18 light 2 TRUE 0.325 FALSE TRUE
jf 2 8 73 speed dark 14 dark 1 TRUE 0.218 FALSE TRUE
jf 2 8 74 speed dark 24 dark 1 TRUE 0.264 FALSE TRUE
jf 2 8 75 speed dark 21 light 2 FALSE 0.242 FALSE FALSE
jf 2 8 76 speed dark 10 dark 1 TRUE 0.363 FALSE TRUE
jf 2 8 77 speed light 15 light 2 TRUE 0.358 FALSE TRUE
jf 2 8 78 speed light 16 dark 1 FALSE 0.22 FALSE FALSE
jf 2 8 79 speed light 17 light 2 TRUE 0.284 FALSE TRUE
jf 2 8 80 speed light 22 light 2 TRUE 0.233 FALSE TRUE
jf 2 8 81 speed light 18 light 2 TRUE 0.249 FALSE TRUE
jf 2 8 82 speed light 14 light 2 TRUE 0.231 FALSE TRUE
jf 2 8 83 speed dark 11 dark 1 TRUE 0.253 FALSE TRUE
jf 2 8 84 speed dark 11 dark 1 TRUE 0.265 FALSE TRUE
jf 2 8 85 speed light 20 dark 1 FALSE 0.264 FALSE FALSE
jf 2 8 86 speed dark 12 dark 1 TRUE 0.3 FALSE TRUE
jf 2 8 87 speed dark 20 light 2 FALSE 0.227 FALSE FALSE
jf 2 8 88 speed light 30 light 2 TRUE 0.276 FALSE TRUE
jf 2 8 89 speed light 21 light 2 TRUE 0.265 FALSE TRUE
jf 2 8 90 speed dark 10 dark 1 TRUE 0.271 FALSE TRUE
jf 2 8 91 speed light 19 light 2 TRUE 0.309 FALSE TRUE
jf 2 8 92 speed dark 12 dark 1 TRUE 0.221 FALSE TRUE
jf 2 8 93 speed light 15 light 2 TRUE 0.229 FALSE TRUE
jf 2 8 94 speed dark 9 dark 1 TRUE 0.238 FALSE TRUE
jf 2 8 95 speed dark 6 light 2 FALSE 0.311 FALSE FALSE
jf 2 8 96 speed dark 17 light 2 FALSE 0.243 FALSE FALSE
jf 2 8 97 speed dark 12 dark 1 TRUE 0.214 FALSE TRUE
jf 2 8 98 speed dark 12 dark 1 TRUE 0.299 FALSE TRUE
jf 2 8 99 speed light 28 dark 1 FALSE 0.216 FALSE FALSE
jf 2 8 100 speed light 21 dark 1 FALSE 0.268 FALSE FALSE
jf 2 8 101 speed light 19 light 2 TRUE 0.344 FALSE TRUE
jf 2 8 102 speed light 25 dark 1 FALSE 0.271 FALSE FALSE
jf 3 1 21 speed dark 17 light 2 FALSE 0.26 FALSE FALSE
jf 3 1 22 speed dark 23 light 2 FALSE 0.308 FALSE FALSE
jf 3 1 23 speed light 12 dark 1 FALSE 0.261 FALSE FALSE
jf 3 1 24 speed light 18 light 2 TRUE 0.336 FALSE TRUE
jf 3 1 25 speed dark 20 light 2 FALSE 0.379 FALSE FALSE
jf 3 1 26 speed dark 15 dark 1 TRUE 0.345 FALSE TRUE
jf 3 1 27 speed light 17 light 2 TRUE 0.358 FALSE TRUE
jf 3 1 28 speed dark 10 dark 1 TRUE 0.337 FALSE TRUE
jf 3 1 29 speed dark 11 light 2 FALSE 0.342 FALSE FALSE
jf 3 1 30 speed light 22 light 2 TRUE 0.324 FALSE TRUE
jf 3 1 31 speed dark 17 dark 1 TRUE 0.352 FALSE TRUE
jf 3 1 32 speed light 22 light 2 TRUE 0.26 FALSE TRUE
jf 3 1 33 speed light 30 light 2 TRUE 0.331 FALSE TRUE
jf 3 1 34 speed light 14 dark 1 FALSE 0.369 FALSE FALSE
jf 3 1 35 speed dark 21 light 2 FALSE 0.236 FALSE FALSE
jf 3 1 36 speed light 18 light 2 TRUE 0.307 FALSE TRUE
jf 3 1 37 speed light 18 light 2 TRUE 0.279 FALSE TRUE
jf 3 1 38 speed light 17 dark 1 FALSE 0.37 FALSE FALSE
jf 3 1 39 speed light 18 light 2 TRUE 0.204 FALSE TRUE
jf 3 1 40 speed light 24 light 2 TRUE 0.514 FALSE TRUE
jf 3 1 41 speed dark 12 dark 1 TRUE 0.36 FALSE TRUE
jf 3 1 42 speed dark 17 light 2 FALSE 0.409 FALSE FALSE
jf 3 1 43 speed light 27 light 2 TRUE 0.39 FALSE TRUE
jf 3 1 44 speed light 21 light 2 TRUE 0.348 FALSE TRUE
jf 3 1 45 speed light 20 light 2 TRUE 0.447 FALSE TRUE
jf 3 1 46 speed dark 5 dark 1 TRUE 0.354 FALSE TRUE
jf 3 1 47 speed light 24 light 2 TRUE 0.39 FALSE TRUE
jf 3 1 48 speed light 15 dark 1 FALSE 0.454 FALSE FALSE
jf 3 1 49 speed dark 16 light 2 FALSE 0.484 FALSE FALSE
jf 3 1 50 speed dark 10 dark 1 TRUE 0.363 FALSE TRUE
jf 3 1 51 speed light 14 light 2 TRUE 0.474 FALSE TRUE
jf 3 1 52 speed light 28 light 2 TRUE 0.463 FALSE TRUE
jf 3 1 53 speed dark 21 light 2 FALSE 0.497 FALSE FALSE
jf 3 1 54 speed dark 10 dark 1 TRUE 0.446 FALSE TRUE
jf 3 1 55 speed dark 6 dark 1 TRUE 0.349 FALSE TRUE
jf 3 1 56 speed light 27 light 2 TRUE 0.36 FALSE TRUE
jf 3 1 57 speed dark 12 dark 1 TRUE 0.321 FALSE TRUE
jf 3 1 58 speed light 19 light 2 TRUE 0.426 FALSE TRUE
jf 3 1 59 speed light 19 light 2 TRUE 0.413 FALSE TRUE
jf 3 1 60 speed dark 9 dark 1 TRUE 0.354 FALSE TRUE
jf 3 1 61 speed dark 23 light 2 FALSE 0.409 FALSE FALSE
jf 3 1 62 speed dark 8 dark 1 TRUE 0.396 FALSE TRUE
jf 3 1 63 speed dark 17 light 2 FALSE 0.36 FALSE FALSE
jf 3 1 64 speed light 18 light 2 TRUE 0.375 FALSE TRUE
jf 3 1 65 speed light 15 dark 1 FALSE 0.387 FALSE FALSE
jf 3 1 66 speed light 28 light 2 TRUE 0.402 FALSE TRUE
jf 3 1 67 speed dark 7 dark 1 TRUE 0.386 FALSE TRUE
jf 3 1 68 speed dark 13 dark 1 TRUE 0.546 FALSE TRUE
jf 3 1 69 speed light 26 light 2 TRUE 0.348 FALSE TRUE
jf 3 1 70 speed dark 19 light 2 FALSE 0.448 FALSE FALSE
jf 3 1 71 speed light 22 light 2 TRUE 0.427 FALSE TRUE
jf 3 1 72 speed dark 6 dark 1 TRUE 0.32 FALSE TRUE
jf 3 1 73 speed dark 9 dark 1 TRUE 0.348 FALSE TRUE
jf 3 1 74 speed light 27 light 2 TRUE 0.328 FALSE TRUE
jf 3 1 75 speed light 28 light 2 TRUE 0.347 FALSE TRUE
jf 3 1 76 speed dark 12 dark 1 TRUE 0.37 FALSE TRUE
jf 3 1 77 speed light 21 light 2 TRUE 0.344 FALSE TRUE
jf 3 1 78 speed light 16 dark 1 FALSE 0.437 FALSE FALSE
jf 3 1 79 speed light 21 light 2 TRUE 0.337 FALSE TRUE
jf 3 1 80 speed light 22 light 2 TRUE 0.349 FALSE TRUE
jf 3 1 81 speed light 22 light 2 TRUE 0.414 FALSE TRUE
jf 3 1 82 speed light 17 dark 1 FALSE 0.371 FALSE FALSE
jf 3 1 83 speed dark 15 dark 1 TRUE 0.374 FALSE TRUE
jf 3 1 84 speed light 23 light 2 TRUE 0.376 FALSE TRUE
jf 3 1 85 speed light 23 light 2 TRUE 0.364 FALSE TRUE
jf 3 1 86 speed dark 13 dark 1 TRUE 0.388 FALSE TRUE
jf 3 1 87 speed dark 15 dark 1 TRUE 0.512 FALSE TRUE
jf 3 1 88 speed light 18 dark 1 FALSE 0.323 FALSE FALSE
jf 3 1 89 speed light 25 light 2 TRUE 0.303 FALSE TRUE
jf 3 1 90 speed dark 12 dark 1 TRUE 0.288 FALSE TRUE
jf 3 1 91 speed light 22 light 2 TRUE 0.31 FALSE TRUE
jf 3 1 92 speed light 32 light 2 TRUE 0.349 FALSE TRUE
jf 3 1 93 speed light 18 dark 1 FALSE 0.404 FALSE FALSE
jf 3 1 94 speed dark 14 dark 1 TRUE 0.391 FALSE TRUE
jf 3 1 95 speed dark 16 light 2 FALSE 0.41 FALSE FALSE
jf 3 1 96 speed light 10 dark 1 FALSE 0.28 FALSE FALSE
jf 3 1 97 speed light 16 light 2 TRUE 0.453 FALSE TRUE
jf 3 1 98 speed dark 11 dark 1 TRUE 0.353 FALSE TRUE
jf 3 1 99 speed light 16 light 2 TRUE 0.444 FALSE TRUE
jf 3 1 100 speed light 11 dark 1 FALSE 0.403 FALSE FALSE
jf 3 1 101 speed dark 13 dark 1 TRUE 0.34 FALSE TRUE
jf 3 1 102 speed dark 7 dark 1 TRUE 0.316 FALSE TRUE
jf 3 2 2 speed dark 12 dark 1 TRUE 0.351 FALSE TRUE
jf 3 2 3 speed light 22 dark 1 FALSE 0.332 FALSE FALSE
jf 3 2 4 speed dark 12 dark 1 TRUE 0.397 FALSE TRUE
jf 3 2 5 speed dark 15 light 2 FALSE 0.294 FALSE FALSE
jf 3 2 6 speed dark 15 light 2 FALSE 0.307 FALSE FALSE
jf 3 2 7 speed dark 8 dark 1 TRUE 0.33 FALSE TRUE
jf 3 2 8 speed dark 14 dark 1 TRUE 0.299 FALSE TRUE
jf 3 2 9 speed dark 16 dark 1 TRUE 0.348 FALSE TRUE
jf 3 2 10 speed light 21 light 2 TRUE 0.36 FALSE TRUE
jf 3 2 11 speed light 24 dark 1 FALSE 0.271 FALSE FALSE
jf 3 2 12 speed dark 21 light 2 FALSE 0.312 FALSE FALSE
jf 3 2 13 speed dark 16 dark 1 TRUE 0.314 FALSE TRUE
jf 3 2 14 speed light 21 light 2 TRUE 0.294 FALSE TRUE
jf 3 2 15 speed light 29 light 2 TRUE 0.316 FALSE TRUE
jf 3 2 16 speed dark 19 dark 1 TRUE 0.371 FALSE TRUE
jf 3 2 17 speed dark 18 dark 1 TRUE 0.449 FALSE TRUE
jf 3 2 18 speed light 16 dark 1 FALSE 0.382 FALSE FALSE
jf 3 2 19 speed light 20 light 2 TRUE 0.353 FALSE TRUE
jf 3 2 20 speed light 20 light 2 TRUE 0.365 FALSE TRUE
jf 3 2 21 speed dark 19 light 2 FALSE 0.333 FALSE FALSE
jf 3 2 22 speed light 14 dark 1 FALSE 0.363 FALSE FALSE
jf 3 2 23 speed light 16 light 2 TRUE 0.22 FALSE TRUE
jf 3 2 24 speed light 27 light 2 TRUE 0.267 FALSE TRUE
jf 3 2 25 speed light 27 light 2 TRUE 0.398 FALSE TRUE
jf 3 2 26 speed dark 11 dark 1 TRUE 0.369 FALSE TRUE
jf 3 2 27 speed dark 7 dark 1 TRUE 0.347 FALSE TRUE
jf 3 2 28 speed light 23 light 2 TRUE 0.361 FALSE TRUE
jf 3 2 29 speed light 16 dark 1 FALSE 0.336 FALSE FALSE
jf 3 2 30 speed light 11 dark 1 FALSE 0.441 FALSE FALSE
jf 3 2 31 speed dark 13 dark 1 TRUE 0.274 FALSE TRUE
jf 3 2 32 speed light 29 light 2 TRUE 0.294 FALSE TRUE
jf 3 2 33 speed dark 7 dark 1 TRUE 0.304 FALSE TRUE
jf 3 2 34 speed light 12 dark 1 FALSE 0.347 FALSE FALSE
jf 3 2 35 speed dark 12 dark 1 TRUE 0.409 FALSE TRUE
jf 3 2 36 speed light 11 dark 1 FALSE 0.332 FALSE FALSE
jf 3 2 37 speed light 21 light 2 TRUE 0.269 FALSE TRUE
jf 3 2 38 speed dark 10 dark 1 TRUE 0.306 FALSE TRUE
jf 3 2 39 speed dark 5 dark 1 TRUE 0.314 FALSE TRUE
jf 3 2 40 speed light 31 light 2 TRUE 0.277 FALSE TRUE
jf 3 2 41 speed light 23 dark 1 FALSE 0.22 FALSE FALSE
jf 3 2 42 speed dark 11 dark 1 TRUE 0.407 FALSE TRUE
jf 3 2 43 speed dark 19 light 2 FALSE 0.228 FALSE FALSE
jf 3 2 44 speed light 22 light 2 TRUE 0.31 FALSE TRUE
jf 3 2 45 speed dark 4 dark 1 TRUE 0.303 FALSE TRUE
jf 3 2 46 speed light 24 light 2 TRUE 0.229 FALSE TRUE
jf 3 2 47 speed dark 12 dark 1 TRUE 0.32 FALSE TRUE
jf 3 2 48 speed light 16 light 2 TRUE 0.229 FALSE TRUE
jf 3 2 49 speed dark 6 dark 1 TRUE 0.303 FALSE TRUE
jf 3 2 50 speed dark 24 light 2 FALSE 0.197 TRUE FALSE
jf 3 2 51 speed light 17 light 2 TRUE 0.291 FALSE TRUE
jf 3 2 52 speed dark 19 light 2 FALSE 0.333 FALSE FALSE
jf 3 2 53 speed light 24 dark 1 FALSE 0.264 FALSE FALSE
jf 3 2 54 speed dark 14 light 2 FALSE 0.337 FALSE FALSE
jf 3 2 55 speed light 17 light 2 TRUE 0.355 FALSE TRUE
jf 3 2 56 speed light 15 dark 1 FALSE 0.37 FALSE FALSE
jf 3 2 57 speed dark 16 light 2 FALSE 0.567 FALSE FALSE
jf 3 2 58 speed dark 1 dark 1 TRUE 0.326 FALSE TRUE
jf 3 2 59 speed light 25 light 2 TRUE 0.326 FALSE TRUE
jf 3 2 60 speed dark 6 dark 1 TRUE 0.271 FALSE TRUE
jf 3 2 61 speed dark 10 dark 1 TRUE 0.281 FALSE TRUE
jf 3 2 62 speed dark 3 dark 1 TRUE 0.299 FALSE TRUE
jf 3 2 63 speed dark 16 light 2 FALSE 0.308 FALSE FALSE
jf 3 2 64 speed dark 15 dark 1 TRUE 0.264 FALSE TRUE
jf 3 2 65 speed dark 12 dark 1 TRUE 0.314 FALSE TRUE
jf 3 2 66 speed dark 2 dark 1 TRUE 0.347 FALSE TRUE
jf 3 2 67 speed light 29 light 2 TRUE 0.261 FALSE TRUE
jf 3 2 68 speed light 28 light 2 TRUE 0.265 FALSE TRUE
jf 3 2 69 speed light 28 light 2 TRUE 0.231 FALSE TRUE
jf 3 2 70 speed dark 13 dark 1 TRUE 0.32 FALSE TRUE
jf 3 2 71 speed light 17 dark 1 FALSE 0.264 FALSE FALSE
jf 3 2 72 speed light 10 dark 1 FALSE 0.342 FALSE FALSE
jf 3 2 73 speed dark 26 light 2 FALSE 0.274 FALSE FALSE
jf 3 2 74 speed light 21 light 2 TRUE 0.54 FALSE TRUE
jf 3 2 75 speed dark 8 dark 1 TRUE 0.327 FALSE TRUE
jf 3 2 76 speed light 31 light 2 TRUE 0.393 FALSE TRUE
jf 3 2 77 speed dark 8 dark 1 TRUE 0.287 FALSE TRUE
jf 3 2 78 speed dark 15 light 2 FALSE 0.377 FALSE FALSE
jf 3 2 79 speed dark 4 light 2 FALSE 0.323 FALSE FALSE
jf 3 2 80 speed dark 16 light 2 FALSE 0.396 FALSE FALSE
jf 3 2 81 speed dark 11 dark 1 TRUE 0.345 FALSE TRUE
jf 3 2 82 speed light 12 dark 1 FALSE 0.366 FALSE FALSE
jf 3 2 83 speed dark 28 light 2 FALSE 0.418 FALSE FALSE
jf 3 2 84 speed light 14 dark 1 FALSE 0.413 FALSE FALSE
jf 3 2 85 speed dark 11 dark 1 TRUE 0.44 FALSE TRUE
jf 3 2 86 speed dark 14 dark 1 TRUE 0.531 FALSE TRUE
jf 3 2 87 speed dark 17 light 2 FALSE 0.382 FALSE FALSE
jf 3 2 88 speed dark 14 dark 1 TRUE 0.364 FALSE TRUE
jf 3 2 89 speed dark 17 light 2 FALSE 0.31 FALSE FALSE
jf 3 2 90 speed light 30 light 2 TRUE 0.408 FALSE TRUE
jf 3 2 91 speed light 23 light 2 TRUE 0.347 FALSE TRUE
jf 3 2 92 speed dark 19 light 2 FALSE 0.349 FALSE FALSE
jf 3 2 93 speed dark 5 dark 1 TRUE 0.329 FALSE TRUE
jf 3 2 94 speed dark 19 light 2 FALSE 0.36 FALSE FALSE
jf 3 2 95 speed light 18 dark 1 FALSE 0.397 FALSE FALSE
jf 3 2 96 speed light 22 light 2 TRUE 0.354 FALSE TRUE
jf 3 2 97 speed light 12 dark 1 FALSE 0.354 FALSE FALSE
jf 3 2 98 speed light 17 light 2 TRUE 0.419 FALSE TRUE
jf 3 2 99 speed light 22 light 2 TRUE 0.348 FALSE TRUE
jf 3 2 100 speed dark 19 light 2 FALSE 0.382 FALSE FALSE
jf 3 2 101 speed light 12 dark 1 FALSE 0.312 FALSE FALSE
jf 3 2 102 speed light 13 dark 1 FALSE 0.341 FALSE FALSE
jf 3 3 2 accuracy light 13 dark 1 FALSE 0.634 FALSE FALSE
jf 3 3 3 accuracy dark 30 light 2 FALSE 0.504 FALSE FALSE
jf 3 3 4 accuracy dark 3 dark 1 TRUE 0.71 FALSE TRUE
jf 3 3 5 accuracy light 12 light 2 TRUE 0.676 FALSE TRUE
jf 3 3 6 accuracy light 29 light 2 TRUE 0.514 FALSE TRUE
jf 3 3 7 accuracy dark 18 dark 1 TRUE 0.603 FALSE TRUE
jf 3 3 8 accuracy light 25 light 2 TRUE 0.529 FALSE TRUE
jf 3 3 9 accuracy dark 13 dark 1 TRUE 0.538 FALSE TRUE
jf 3 3 10 accuracy dark 12 dark 1 TRUE 0.533 FALSE TRUE
jf 3 3 11 accuracy light 23 light 2 TRUE 0.578 FALSE TRUE
jf 3 3 12 accuracy light 18 light 2 TRUE 0.582 FALSE TRUE
jf 3 3 13 accuracy light 29 light 2 TRUE 0.483 FALSE TRUE
jf 3 3 14 accuracy dark 3 dark 1 TRUE 0.372 FALSE TRUE
jf 3 3 15 accuracy light 25 light 2 TRUE 0.364 FALSE TRUE
jf 3 3 16 accuracy dark 10 dark 1 TRUE 0.439 FALSE TRUE
jf 3 3 17 accuracy light 16 dark 1 FALSE 0.352 FALSE FALSE
jf 3 3 18 accuracy light 21 light 2 TRUE 0.52 FALSE TRUE
jf 3 3 19 accuracy light 17 light 2 TRUE 0.368 FALSE TRUE
jf 3 3 20 accuracy light 17 dark 1 FALSE 0.592 FALSE FALSE
jf 3 3 21 accuracy light 27 light 2 TRUE 0.587 FALSE TRUE
jf 3 3 22 accuracy dark 8 dark 1 TRUE 0.355 FALSE TRUE
jf 3 3 23 accuracy dark 27 light 2 FALSE 0.493 FALSE FALSE
jf 3 3 24 accuracy dark 25 light 2 FALSE 0.525 FALSE FALSE
jf 3 3 25 accuracy light 16 dark 1 FALSE 0.379 FALSE FALSE
jf 3 3 26 accuracy dark 6 dark 1 TRUE 0.492 FALSE TRUE
jf 3 3 27 accuracy light 21 light 2 TRUE 0.562 FALSE TRUE
jf 3 3 28 accuracy light 15 light 2 TRUE 0.765 FALSE TRUE
jf 3 3 29 accuracy dark 5 dark 1 TRUE 0.653 FALSE TRUE
jf 3 3 30 accuracy light 24 light 2 TRUE 0.595 FALSE TRUE
jf 3 3 31 accuracy dark 14 dark 1 TRUE 0.57 FALSE TRUE
jf 3 3 32 accuracy light 18 light 2 TRUE 0.711 FALSE TRUE
jf 3 3 33 accuracy dark 8 dark 1 TRUE 0.521 FALSE TRUE
jf 3 3 34 accuracy dark 10 dark 1 TRUE 0.864 FALSE TRUE
jf 3 3 35 accuracy light 32 light 2 TRUE 0.676 FALSE TRUE
jf 3 3 36 accuracy dark 3 dark 1 TRUE 0.62 FALSE TRUE
jf 3 3 37 accuracy dark 8 dark 1 TRUE 0.599 FALSE TRUE
jf 3 3 38 accuracy light 18 light 2 TRUE 0.644 FALSE TRUE
jf 3 3 39 accuracy light 26 light 2 TRUE 0.598 FALSE TRUE
jf 3 3 40 accuracy dark 18 light 2 FALSE 0.566 FALSE FALSE
jf 3 3 41 accuracy dark 20 light 2 FALSE 0.789 FALSE FALSE
jf 3 3 42 accuracy dark 5 dark 1 TRUE 0.695 FALSE TRUE
jf 3 3 43 accuracy light 27 light 2 TRUE 0.66 FALSE TRUE
jf 3 3 44 accuracy light 20 light 2 TRUE 0.979 FALSE TRUE
jf 3 3 45 accuracy light 26 light 2 TRUE 0.68 FALSE TRUE
jf 3 3 46 accuracy dark 6 dark 1 TRUE 0.653 FALSE TRUE
jf 3 3 47 accuracy light 27 light 2 TRUE 0.726 FALSE TRUE
jf 3 3 48 accuracy dark 13 dark 1 TRUE 0.587 FALSE TRUE
jf 3 3 49 accuracy light 23 light 2 TRUE 0.858 FALSE TRUE
jf 3 3 50 accuracy light 19 light 2 TRUE 0.963 FALSE TRUE
jf 3 3 51 accuracy dark 15 dark 1 TRUE 1.379 FALSE TRUE
jf 3 3 52 accuracy dark 7 dark 1 TRUE 0.781 FALSE TRUE
jf 3 3 53 accuracy dark 7 dark 1 TRUE 0.664 FALSE TRUE
jf 3 3 54 accuracy light 15 dark 1 FALSE 1.079 FALSE FALSE
jf 3 3 55 accuracy dark 12 light 2 FALSE 1.147 FALSE FALSE
jf 3 3 56 accuracy dark 12 dark 1 TRUE 1.222 FALSE TRUE
jf 3 3 57 accuracy dark 22 light 2 FALSE 0.69 FALSE FALSE
jf 3 3 58 accuracy dark 13 dark 1 TRUE 1.075 FALSE TRUE
jf 3 3 59 accuracy light 26 light 2 TRUE 0.791 FALSE TRUE
jf 3 3 60 accuracy light 11 dark 1 FALSE 0.703 FALSE FALSE
jf 3 3 61 accuracy light 21 light 2 TRUE 1.231 FALSE TRUE
jf 3 3 62 accuracy dark 7 dark 1 TRUE 0.703 FALSE TRUE
jf 3 3 63 accuracy dark 9 dark 1 TRUE 0.631 FALSE TRUE
jf 3 3 64 accuracy dark 16 light 2 FALSE 0.66 FALSE FALSE
jf 3 3 65 accuracy dark 21 light 2 FALSE 0.623 FALSE FALSE
jf 3 3 66 accuracy dark 5 dark 1 TRUE 0.578 FALSE TRUE
jf 3 3 67 accuracy light 18 light 2 TRUE 0.94 FALSE TRUE
jf 3 3 68 accuracy dark 8 dark 1 TRUE 0.569 FALSE TRUE
jf 3 3 69 accuracy dark 8 dark 1 TRUE 0.631 FALSE TRUE
jf 3 3 70 accuracy light 12 dark 1 FALSE 0.814 FALSE FALSE
jf 3 3 71 accuracy dark 0 dark 1 TRUE 0.623 FALSE TRUE
jf 3 3 72 accuracy light 20 light 2 TRUE 0.645 FALSE TRUE
jf 3 3 73 accuracy dark 16 light 2 FALSE 1.027 FALSE FALSE
jf 3 3 74 accuracy light 23 light 2 TRUE 0.623 FALSE TRUE
jf 3 3 75 accuracy light 28 light 2 TRUE 0.665 FALSE TRUE
jf 3 3 76 accuracy dark 7 dark 1 TRUE 0.62 FALSE TRUE
jf 3 3 77 accuracy light 24 light 2 TRUE 0.561 FALSE TRUE
jf 3 3 78 accuracy light 31 light 2 TRUE 0.583 FALSE TRUE
jf 3 3 79 accuracy light 30 light 2 TRUE 0.565 FALSE TRUE
jf 3 3 80 accuracy light 9 dark 1 FALSE 0.472 FALSE FALSE
jf 3 3 81 accuracy light 21 light 2 TRUE 0.535 FALSE TRUE
jf 3 3 82 accuracy light 23 light 2 TRUE 0.516 FALSE TRUE
jf 3 3 83 accuracy dark 11 dark 1 TRUE 0.52 FALSE TRUE
jf 3 3 84 accuracy dark 9 dark 1 TRUE 0.5 FALSE TRUE
jf 3 3 85 accuracy light 17 light 2 TRUE 0.66 FALSE TRUE
jf 3 3 86 accuracy light 20 light 2 TRUE 0.417 FALSE TRUE
jf 3 3 87 accuracy dark 6 dark 1 TRUE 0.455 FALSE TRUE
jf 3 3 88 accuracy dark 12 light 2 FALSE 0.563 FALSE FALSE
jf 3 3 89 accuracy dark 14 dark 1 TRUE 0.462 FALSE TRUE
jf 3 3 90 accuracy light 25 light 2 TRUE 0.561 FALSE TRUE
jf 3 3 91 accuracy light 29 light 2 TRUE 0.482 FALSE TRUE
jf 3 3 92 accuracy dark 8 dark 1 TRUE 0.471 FALSE TRUE
jf 3 3 93 accuracy light 29 light 2 TRUE 0.527 FALSE TRUE
jf 3 3 94 accuracy dark 4 dark 1 TRUE 0.438 FALSE TRUE
jf 3 3 95 accuracy dark 13 light 2 FALSE 0.56 FALSE FALSE
jf 3 3 96 accuracy light 17 light 2 TRUE 0.444 FALSE TRUE
jf 3 3 97 accuracy dark 14 dark 1 TRUE 0.471 FALSE TRUE
jf 3 3 98 accuracy light 22 light 2 TRUE 0.478 FALSE TRUE
jf 3 3 99 accuracy dark 9 dark 1 TRUE 0.438 FALSE TRUE
jf 3 3 100 accuracy dark 8 dark 1 TRUE 0.451 FALSE TRUE
jf 3 3 101 accuracy light 16 light 2 TRUE 0.462 FALSE TRUE
jf 3 3 102 accuracy dark 0 dark 1 TRUE 0.456 FALSE TRUE
jf 3 4 2 accuracy light 22 dark 1 FALSE 0.42 FALSE FALSE
jf 3 4 3 accuracy dark 14 light 2 FALSE 0.731 FALSE FALSE
jf 3 4 4 accuracy light 24 light 2 TRUE 1.302 FALSE TRUE
jf 3 4 5 accuracy light 20 dark 1 FALSE 0.983 FALSE FALSE
jf 3 4 6 accuracy dark 10 dark 1 TRUE 0.59 FALSE TRUE
jf 3 4 7 accuracy light 19 light 2 TRUE 0.594 FALSE TRUE
jf 3 4 8 accuracy light 1 dark 1 FALSE 0.669 FALSE FALSE
jf 3 4 9 accuracy light 24 light 2 TRUE 0.769 FALSE TRUE
jf 3 4 10 accuracy light 23 light 2 TRUE 0.796 FALSE TRUE
jf 3 4 11 accuracy light 25 light 2 TRUE 0.598 FALSE TRUE
jf 3 4 12 accuracy light 22 light 2 TRUE 0.749 FALSE TRUE
jf 3 4 13 accuracy dark 18 dark 1 TRUE 1.084 FALSE TRUE
jf 3 4 14 accuracy dark 12 dark 1 TRUE 0.615 FALSE TRUE
jf 3 4 15 accuracy dark 5 dark 1 TRUE 0.616 FALSE TRUE
jf 3 4 16 accuracy dark 15 light 2 FALSE 0.711 FALSE FALSE
jf 3 4 17 accuracy dark 8 dark 1 TRUE 0.63 FALSE TRUE
jf 3 4 18 accuracy dark 8 dark 1 TRUE 0.551 FALSE TRUE
jf 3 4 19 accuracy dark 18 light 2 FALSE 0.728 FALSE FALSE
jf 3 4 20 accuracy light 15 dark 1 FALSE 0.926 FALSE FALSE
jf 3 4 21 accuracy light 19 light 2 TRUE 1.33 FALSE TRUE
jf 3 4 22 accuracy light 13 dark 1 FALSE 2.323 FALSE FALSE
jf 3 4 23 accuracy dark 13 dark 1 TRUE 1.795 FALSE TRUE
jf 3 4 24 accuracy dark 13 dark 1 TRUE 1.161 FALSE TRUE
jf 3 4 25 accuracy dark 7 dark 1 TRUE 0.713 FALSE TRUE
jf 3 4 26 accuracy dark 27 light 2 FALSE 0.893 FALSE FALSE
jf 3 4 27 accuracy dark 13 dark 1 TRUE 0.842 FALSE TRUE
jf 3 4 28 accuracy dark 9 dark 1 TRUE 0.798 FALSE TRUE
jf 3 4 29 accuracy dark 13 dark 1 TRUE 1.327 FALSE TRUE
jf 3 4 30 accuracy dark 17 light 2 FALSE 0.942 FALSE FALSE
jf 3 4 31 accuracy light 16 light 2 TRUE 1.102 FALSE TRUE
jf 3 4 32 accuracy light 18 light 2 TRUE 1.393 FALSE TRUE
jf 3 4 33 accuracy dark 18 light 2 FALSE 2.186 FALSE FALSE
jf 3 4 34 accuracy dark 15 dark 1 TRUE 1.057 FALSE TRUE
jf 3 4 35 accuracy light 25 light 2 TRUE 0.793 FALSE TRUE
jf 3 4 36 accuracy light 24 light 2 TRUE 0.797 FALSE TRUE
jf 3 4 37 accuracy light 27 light 2 TRUE 0.796 FALSE TRUE
jf 3 4 38 accuracy dark 17 dark 1 TRUE 1.447 FALSE TRUE
jf 3 4 39 accuracy light 22 light 2 TRUE 0.609 FALSE TRUE
jf 3 4 40 accuracy light 11 dark 1 FALSE 0.572 FALSE FALSE
jf 3 4 41 accuracy light 27 light 2 TRUE 0.57 FALSE TRUE
jf 3 4 42 accuracy light 16 dark 1 FALSE 0.753 FALSE FALSE
jf 3 4 43 accuracy light 16 light 2 TRUE 1.163 FALSE TRUE
jf 3 4 44 accuracy light 12 dark 1 FALSE 1.033 FALSE FALSE
jf 3 4 45 accuracy light 18 light 2 TRUE 0.669 FALSE TRUE
jf 3 4 46 accuracy dark 18 light 2 FALSE 0.88 FALSE FALSE
jf 3 4 47 accuracy dark 8 dark 1 TRUE 0.643 FALSE TRUE
jf 3 4 48 accuracy dark 9 dark 1 TRUE 0.649 FALSE TRUE
jf 3 4 49 accuracy light 24 light 2 TRUE 0.857 FALSE TRUE
jf 3 4 50 accuracy dark 12 dark 1 TRUE 0.869 FALSE TRUE
jf 3 4 51 accuracy light 24 light 2 TRUE 0.61 FALSE TRUE
jf 3 4 52 accuracy light 31 light 2 TRUE 0.682 FALSE TRUE
jf 3 4 53 accuracy light 27 light 2 TRUE 0.614 FALSE TRUE
jf 3 4 54 accuracy dark 14 dark 1 TRUE 0.77 FALSE TRUE
jf 3 4 55 accuracy dark 13 dark 1 TRUE 0.583 FALSE TRUE
jf 3 4 56 accuracy light 16 light 2 TRUE 0.777 FALSE TRUE
jf 3 4 57 accuracy dark 24 light 2 FALSE 0.565 FALSE FALSE
jf 3 4 58 accuracy light 19 light 2 TRUE 0.957 FALSE TRUE
jf 3 4 59 accuracy light 16 light 2 TRUE 0.613 FALSE TRUE
jf 3 4 60 accuracy light 20 light 2 TRUE 0.649 FALSE TRUE
jf 3 4 61 accuracy dark 15 dark 1 TRUE 0.801 FALSE TRUE
jf 3 4 62 accuracy light 31 light 2 TRUE 0.56 FALSE TRUE
jf 3 4 63 accuracy light 19 dark 1 FALSE 0.67 FALSE FALSE
jf 3 4 64 accuracy light 21 light 2 TRUE 0.735 FALSE TRUE
jf 3 4 65 accuracy light 15 dark 1 FALSE 0.619 FALSE FALSE
jf 3 4 66 accuracy dark 11 dark 1 TRUE 0.623 FALSE TRUE
jf 3 4 67 accuracy light 13 dark 1 FALSE 0.665 FALSE FALSE
jf 3 4 68 accuracy light 17 light 2 TRUE 0.834 FALSE TRUE
jf 3 4 69 accuracy dark 4 dark 1 TRUE 0.569 FALSE TRUE
jf 3 4 70 accuracy dark 16 light 2 FALSE 1.04 FALSE FALSE
jf 3 4 71 accuracy dark 16 dark 1 TRUE 0.792 FALSE TRUE
jf 3 4 72 accuracy dark 7 dark 1 TRUE 0.614 FALSE TRUE
jf 3 4 73 accuracy dark 16 light 2 FALSE 0.99 FALSE FALSE
jf 3 4 74 accuracy light 22 light 2 TRUE 0.608 FALSE TRUE
jf 3 4 75 accuracy dark 1 dark 1 TRUE 0.586 FALSE TRUE
jf 3 4 76 accuracy dark 13 dark 1 TRUE 0.815 FALSE TRUE
jf 3 4 77 accuracy light 17 light 2 TRUE 0.61 FALSE TRUE
jf 3 4 78 accuracy light 13 dark 1 FALSE 0.721 FALSE FALSE
jf 3 4 79 accuracy light 20 light 2 TRUE 0.618 FALSE TRUE
jf 3 4 80 accuracy dark 2 dark 1 TRUE 0.473 FALSE TRUE
jf 3 4 81 accuracy dark 9 dark 1 TRUE 0.698 FALSE TRUE
jf 3 4 82 accuracy light 25 light 2 TRUE 0.644 FALSE TRUE
jf 3 4 83 accuracy light 13 dark 1 FALSE 0.504 FALSE FALSE
jf 3 4 84 accuracy dark 4 dark 1 TRUE 0.559 FALSE TRUE
jf 3 4 85 accuracy dark 21 light 2 FALSE 0.594 FALSE FALSE
jf 3 4 86 accuracy light 28 light 2 TRUE 0.493 FALSE TRUE
jf 3 4 87 accuracy light 18 light 2 TRUE 0.681 FALSE TRUE
jf 3 4 88 accuracy dark 20 light 2 FALSE 0.5 FALSE FALSE
jf 3 4 89 accuracy dark 17 light 2 FALSE 0.59 FALSE FALSE
jf 3 4 90 accuracy dark 11 dark 1 TRUE 0.747 FALSE TRUE
jf 3 4 91 accuracy light 18 light 2 TRUE 1.156 FALSE TRUE
jf 3 4 92 accuracy light 28 light 2 TRUE 0.682 FALSE TRUE
jf 3 4 93 accuracy light 23 dark 1 FALSE 1.001 FALSE FALSE
jf 3 4 94 accuracy dark 14 light 2 FALSE 2.005 FALSE FALSE
jf 3 4 95 accuracy light 21 light 2 TRUE 0.623 FALSE TRUE
jf 3 4 96 accuracy light 16 light 2 TRUE 1.062 FALSE TRUE
jf 3 4 97 accuracy dark 15 dark 1 TRUE 0.901 FALSE TRUE
jf 3 4 98 accuracy dark 19 light 2 FALSE 0.644 FALSE FALSE
jf 3 4 99 accuracy light 21 light 2 TRUE 0.541 FALSE TRUE
jf 3 4 100 accuracy dark 16 light 2 FALSE 0.946 FALSE FALSE
jf 3 4 101 accuracy dark 2 dark 1 TRUE 0.545 FALSE TRUE
jf 3 4 102 accuracy light 16 light 2 TRUE 0.695 FALSE TRUE
jf 3 5 2 speed dark 10 dark 1 TRUE 0.406 FALSE TRUE
jf 3 5 3 speed dark 5 light 2 FALSE 0.328 FALSE FALSE
jf 3 5 4 speed dark 0 dark 1 TRUE 0.345 FALSE TRUE
jf 3 5 5 speed dark 24 light 2 FALSE 0.328 FALSE FALSE
jf 3 5 6 speed dark 15 dark 1 TRUE 0.427 FALSE TRUE
jf 3 5 7 speed dark 10 dark 1 TRUE 0.316 FALSE TRUE
jf 3 5 8 speed light 14 dark 1 FALSE 0.299 FALSE FALSE
jf 3 5 9 speed dark 12 dark 1 TRUE 0.375 FALSE TRUE
jf 3 5 10 speed light 21 light 2 TRUE 0.278 FALSE TRUE
jf 3 5 11 speed dark 7 dark 1 TRUE 0.288 FALSE TRUE
jf 3 5 12 speed dark 18 light 2 FALSE 0.311 FALSE FALSE
jf 3 5 13 speed light 17 light 2 TRUE 0.425 FALSE TRUE
jf 3 5 14 speed dark 15 light 2 FALSE 0.398 FALSE FALSE
jf 3 5 15 speed dark 18 light 2 FALSE 0.373 FALSE FALSE
jf 3 5 16 speed dark 12 dark 1 TRUE 0.363 FALSE TRUE
jf 3 5 17 speed dark 18 dark 1 TRUE 0.315 FALSE TRUE
jf 3 5 18 speed light 16 dark 1 FALSE 0.398 FALSE FALSE
jf 3 5 19 speed light 16 light 2 TRUE 0.337 FALSE TRUE
jf 3 5 20 speed dark 10 dark 1 TRUE 0.322 FALSE TRUE
jf 3 5 21 speed light 25 dark 1 FALSE 0.316 FALSE FALSE
jf 3 5 22 speed dark 13 dark 1 TRUE 0.381 FALSE TRUE
jf 3 5 23 speed light 16 light 2 TRUE 0.376 FALSE TRUE
jf 3 5 24 speed light 18 light 2 TRUE 0.348 FALSE TRUE
jf 3 5 25 speed light 19 light 2 TRUE 0.347 FALSE TRUE
jf 3 5 26 speed light 20 light 2 TRUE 0.365 FALSE TRUE
jf 3 5 27 speed light 13 dark 1 FALSE 0.418 FALSE FALSE
jf 3 5 28 speed dark 3 dark 1 TRUE 0.475 FALSE TRUE
jf 3 5 29 speed dark 21 light 2 FALSE 0.309 FALSE FALSE
jf 3 5 30 speed dark 8 dark 1 TRUE 0.396 FALSE TRUE
jf 3 5 31 speed dark 15 light 2 FALSE 0.326 FALSE FALSE
jf 3 5 32 speed light 20 light 2 TRUE 0.325 FALSE TRUE
jf 3 5 33 speed light 14 dark 1 FALSE 0.351 FALSE FALSE
jf 3 5 34 speed light 16 light 2 TRUE 0.336 FALSE TRUE
jf 3 5 35 speed dark 4 dark 1 TRUE 0.286 FALSE TRUE
jf 3 5 36 speed light 17 dark 1 FALSE 0.315 FALSE FALSE
jf 3 5 37 speed dark 14 light 2 FALSE 0.351 FALSE FALSE
jf 3 5 38 speed light 18 light 2 TRUE 0.309 FALSE TRUE
jf 3 5 39 speed light 12 dark 1 FALSE 0.303 FALSE FALSE
jf 3 5 40 speed dark 5 dark 1 TRUE 0.342 FALSE TRUE
jf 3 5 41 speed dark 11 dark 1 TRUE 0.331 FALSE TRUE
jf 3 5 42 speed dark 11 light 2 FALSE 0.344 FALSE FALSE
jf 3 5 43 speed dark 0 dark 1 TRUE 0.313 FALSE TRUE
jf 3 5 44 speed dark 12 light 2 FALSE 0.344 FALSE FALSE
jf 3 5 45 speed dark 13 dark 1 TRUE 0.362 FALSE TRUE
jf 3 5 46 speed dark 19 dark 1 TRUE 0.382 FALSE TRUE
jf 3 5 47 speed dark 5 dark 1 TRUE 0.396 FALSE TRUE
jf 3 5 48 speed dark 23 light 2 FALSE 0.344 FALSE FALSE
jf 3 5 49 speed light 28 light 2 TRUE 0.356 FALSE TRUE
jf 3 5 50 speed dark 18 dark 1 TRUE 0.371 FALSE TRUE
jf 3 5 51 speed light 22 light 2 TRUE 0.377 FALSE TRUE
jf 3 5 52 speed dark 13 dark 1 TRUE 0.354 FALSE TRUE
jf 3 5 53 speed light 27 light 2 TRUE 0.361 FALSE TRUE
jf 3 5 54 speed light 18 dark 1 FALSE 0.371 FALSE FALSE
jf 3 5 55 speed light 22 light 2 TRUE 0.303 FALSE TRUE
jf 3 5 56 speed dark 9 dark 1 TRUE 0.304 FALSE TRUE
jf 3 5 57 speed dark 10 dark 1 TRUE 0.315 FALSE TRUE
jf 3 5 58 speed light 8 dark 1 FALSE 0.3 FALSE FALSE
jf 3 5 59 speed light 13 light 2 TRUE 0.502 FALSE TRUE
jf 3 5 60 speed light 17 light 2 TRUE 0.338 FALSE TRUE
jf 3 5 61 speed light 21 light 2 TRUE 0.348 FALSE TRUE
jf 3 5 62 speed light 21 light 2 TRUE 0.364 FALSE TRUE
jf 3 5 63 speed dark 8 dark 1 TRUE 0.286 FALSE TRUE
jf 3 5 64 speed light 15 light 2 TRUE 0.344 FALSE TRUE
jf 3 5 65 speed dark 12 dark 1 TRUE 0.337 FALSE TRUE
jf 3 5 66 speed light 18 light 2 TRUE 0.293 FALSE TRUE
jf 3 5 67 speed dark 15 dark 1 TRUE 0.387 FALSE TRUE
jf 3 5 68 speed dark 17 light 2 FALSE 0.377 FALSE FALSE
jf 3 5 69 speed dark 7 dark 1 TRUE 0.296 FALSE TRUE
jf 3 5 70 speed dark 18 light 2 FALSE 0.296 FALSE FALSE
jf 3 5 71 speed light 20 light 2 TRUE 0.357 FALSE TRUE
jf 3 5 72 speed light 24 light 2 TRUE 0.317 FALSE TRUE
jf 3 5 73 speed dark 9 dark 1 TRUE 0.336 FALSE TRUE
jf 3 5 74 speed light 19 light 2 TRUE 0.329 FALSE TRUE
jf 3 5 75 speed light 21 light 2 TRUE 0.415 FALSE TRUE
jf 3 5 76 speed dark 20 light 2 FALSE 0.332 FALSE FALSE
jf 3 5 77 speed dark 13 dark 1 TRUE 0.363 FALSE TRUE
jf 3 5 78 speed light 20 light 2 TRUE 0.361 FALSE TRUE
jf 3 5 79 speed dark 17 light 2 FALSE 0.331 FALSE FALSE
jf 3 5 80 speed dark 14 dark 1 TRUE 0.33 FALSE TRUE
jf 3 5 81 speed light 20 light 2 TRUE 0.328 FALSE TRUE
jf 3 5 82 speed dark 9 dark 1 TRUE 0.403 FALSE TRUE
jf 3 5 83 speed dark 17 light 2 FALSE 0.328 FALSE FALSE
jf 3 5 84 speed dark 13 dark 1 TRUE 0.38 FALSE TRUE
jf 3 5 85 speed light 8 dark 1 FALSE 0.348 FALSE FALSE
jf 3 5 86 speed light 22 light 2 TRUE 0.289 FALSE TRUE
jf 3 5 87 speed light 31 light 2 TRUE 0.431 FALSE TRUE
jf 3 5 88 speed light 9 dark 1 FALSE 0.271 FALSE FALSE
jf 3 5 89 speed dark 16 light 2 FALSE 0.337 FALSE FALSE
jf 3 5 90 speed light 20 light 2 TRUE 0.36 FALSE TRUE
jf 3 5 91 speed dark 20 light 2 FALSE 0.332 FALSE FALSE
jf 3 5 92 speed light 25 light 2 TRUE 0.325 FALSE TRUE
jf 3 5 93 speed light 20 light 2 TRUE 0.348 FALSE TRUE
jf 3 5 94 speed light 16 light 2 TRUE 0.399 FALSE TRUE
jf 3 5 95 speed light 20 light 2 TRUE 0.382 FALSE TRUE
jf 3 5 96 speed light 23 light 2 TRUE 0.35 FALSE TRUE
jf 3 5 97 speed light 28 light 2 TRUE 0.332 FALSE TRUE
jf 3 5 98 speed dark 19 light 2 FALSE 0.315 FALSE FALSE
jf 3 5 99 speed dark 20 light 2 FALSE 0.392 FALSE FALSE
jf 3 5 100 speed light 19 light 2 TRUE 0.358 FALSE TRUE
jf 3 5 101 speed light 18 dark 1 FALSE 0.453 FALSE FALSE
jf 3 5 102 speed light 10 dark 1 FALSE 0.393 FALSE FALSE
jf 3 6 2 speed dark 14 dark 1 TRUE 0.431 FALSE TRUE
jf 3 6 3 speed dark 4 dark 1 TRUE 0.333 FALSE TRUE
jf 3 6 4 speed light 23 light 2 TRUE 0.377 FALSE TRUE
jf 3 6 5 speed light 19 light 2 TRUE 0.383 FALSE TRUE
jf 3 6 6 speed light 20 light 2 TRUE 0.315 FALSE TRUE
jf 3 6 7 speed light 16 light 2 TRUE 0.298 FALSE TRUE
jf 3 6 8 speed dark 17 light 2 FALSE 0.448 FALSE FALSE
jf 3 6 9 speed dark 14 dark 1 TRUE 0.363 FALSE TRUE
jf 3 6 10 speed dark 6 dark 1 TRUE 0.367 FALSE TRUE
jf 3 6 11 speed dark 15 light 2 FALSE 0.343 FALSE FALSE
jf 3 6 12 speed light 16 light 2 TRUE 0.357 FALSE TRUE
jf 3 6 13 speed dark 16 light 2 FALSE 0.381 FALSE FALSE
jf 3 6 14 speed dark 3 dark 1 TRUE 0.313 FALSE TRUE
jf 3 6 15 speed light 21 light 2 TRUE 0.345 FALSE TRUE
jf 3 6 16 speed dark 11 dark 1 TRUE 0.387 FALSE TRUE
jf 3 6 17 speed light 18 light 2 TRUE 0.311 FALSE TRUE
jf 3 6 18 speed light 17 light 2 TRUE 0.398 FALSE TRUE
jf 3 6 19 speed light 18 light 2 TRUE 0.399 FALSE TRUE
jf 3 6 20 speed light 11 dark 1 FALSE 0.338 FALSE FALSE
jf 3 6 21 speed light 16 light 2 TRUE 0.287 FALSE TRUE
jf 3 6 22 speed dark 8 dark 1 TRUE 0.387 FALSE TRUE
jf 3 6 23 speed light 14 light 2 TRUE 0.329 FALSE TRUE
jf 3 6 24 speed light 21 dark 1 FALSE 0.305 FALSE FALSE
jf 3 6 25 speed dark 16 light 2 FALSE 0.518 FALSE FALSE
jf 3 6 26 speed dark 17 light 2 FALSE 0.471 FALSE FALSE
jf 3 6 27 speed light 22 light 2 TRUE 0.292 FALSE TRUE
jf 3 6 28 speed light 25 light 2 TRUE 0.383 FALSE TRUE
jf 3 6 29 speed light 18 light 2 TRUE 0.464 FALSE TRUE
jf 3 6 30 speed light 21 light 2 TRUE 0.383 FALSE TRUE
jf 3 6 31 speed dark 15 dark 1 TRUE 0.386 FALSE TRUE
jf 3 6 32 speed dark 15 light 2 FALSE 0.328 FALSE FALSE
jf 3 6 33 speed dark 9 dark 1 TRUE 0.279 FALSE TRUE
jf 3 6 34 speed dark 8 dark 1 TRUE 0.415 FALSE TRUE
jf 3 6 35 speed dark 2 dark 1 TRUE 0.267 FALSE TRUE
jf 3 6 36 speed dark 9 dark 1 TRUE 0.299 FALSE TRUE
jf 3 6 37 speed light 22 light 2 TRUE 0.326 FALSE TRUE
jf 3 6 38 speed dark 9 dark 1 TRUE 0.37 FALSE TRUE
jf 3 6 39 speed dark 14 light 2 FALSE 0.277 FALSE FALSE
jf 3 6 40 speed dark 9 dark 1 TRUE 0.242 FALSE TRUE
jf 3 6 41 speed light 18 light 2 TRUE 0.212 FALSE TRUE
jf 3 6 42 speed dark 22 dark 1 TRUE 0.222 FALSE TRUE
jf 3 6 43 speed light 23 light 2 TRUE 0.276 FALSE TRUE
jf 3 6 44 speed dark 20 light 2 FALSE 0.267 FALSE FALSE
jf 3 6 45 speed dark 26 light 2 FALSE 0.259 FALSE FALSE
jf 3 6 46 speed light 20 light 2 TRUE 0.308 FALSE TRUE
jf 3 6 47 speed light 23 light 2 TRUE 0.331 FALSE TRUE
jf 3 6 48 speed dark 13 dark 1 TRUE 0.305 FALSE TRUE
jf 3 6 49 speed dark 2 dark 1 TRUE 0.33 FALSE TRUE
jf 3 6 50 speed dark 12 light 2 FALSE 0.345 FALSE FALSE
jf 3 6 51 speed light 16 light 2 TRUE 0.44 FALSE TRUE
jf 3 6 52 speed light 24 light 2 TRUE 0.366 FALSE TRUE
jf 3 6 53 speed light 13 dark 1 FALSE 0.303 FALSE FALSE
jf 3 6 54 speed dark 16 light 2 FALSE 0.288 FALSE FALSE
jf 3 6 55 speed dark 5 dark 1 TRUE 0.313 FALSE TRUE
jf 3 6 56 speed light 12 dark 1 FALSE 0.366 FALSE FALSE
jf 3 6 57 speed dark 20 light 2 FALSE 0.336 FALSE FALSE
jf 3 6 58 speed light 15 dark 1 FALSE 0.315 FALSE FALSE
jf 3 6 59 speed dark 16 light 2 FALSE 0.286 FALSE FALSE
jf 3 6 60 speed dark 17 light 2 FALSE 0.359 FALSE FALSE
jf 3 6 61 speed light 17 light 2 TRUE 0.391 FALSE TRUE
jf 3 6 62 speed dark 20 light 2 FALSE 0.349 FALSE FALSE
jf 3 6 63 speed light 10 dark 1 FALSE 0.346 FALSE FALSE
jf 3 6 64 speed dark 10 light 2 FALSE 0.404 FALSE FALSE
jf 3 6 65 speed light 29 light 2 TRUE 0.408 FALSE TRUE
jf 3 6 66 speed light 11 dark 1 FALSE 0.502 FALSE FALSE
jf 3 6 67 speed light 26 light 2 TRUE 0.352 FALSE TRUE
jf 3 6 68 speed dark 4 dark 1 TRUE 0.305 FALSE TRUE
jf 3 6 69 speed dark 11 dark 1 TRUE 0.365 FALSE TRUE
jf 3 6 70 speed dark 4 dark 1 TRUE 0.351 FALSE TRUE
jf 3 6 71 speed light 25 light 2 TRUE 0.376 FALSE TRUE
jf 3 6 72 speed dark 16 dark 1 TRUE 0.454 FALSE TRUE
jf 3 6 73 speed dark 15 light 2 FALSE 0.41 FALSE FALSE
jf 3 6 74 speed dark 23 light 2 FALSE 0.425 FALSE FALSE
jf 3 6 75 speed light 15 dark 1 FALSE 0.347 FALSE FALSE
jf 3 6 76 speed light 26 light 2 TRUE 0.32 FALSE TRUE
jf 3 6 77 speed light 19 light 2 TRUE 0.315 FALSE TRUE
jf 3 6 78 speed light 5 dark 1 FALSE 0.323 FALSE FALSE
jf 3 6 79 speed dark 16 light 2 FALSE 0.386 FALSE FALSE
jf 3 6 80 speed light 10 dark 1 FALSE 0.348 FALSE FALSE
jf 3 6 81 speed dark 6 dark 1 TRUE 0.343 FALSE TRUE
jf 3 6 82 speed light 18 light 2 TRUE 0.494 FALSE TRUE
jf 3 6 83 speed dark 18 light 2 FALSE 0.464 FALSE FALSE
jf 3 6 84 speed light 11 dark 1 FALSE 0.33 FALSE FALSE
jf 3 6 85 speed light 8 dark 1 FALSE 0.375 FALSE FALSE
jf 3 6 86 speed light 21 light 2 TRUE 0.387 FALSE TRUE
jf 3 6 87 speed dark 8 dark 1 TRUE 0.354 FALSE TRUE
jf 3 6 88 speed light 14 light 2 TRUE 0.393 FALSE TRUE
jf 3 6 89 speed light 14 light 2 TRUE 0.53 FALSE TRUE
jf 3 6 90 speed dark 7 dark 1 TRUE 0.412 FALSE TRUE
jf 3 6 91 speed dark 10 dark 1 TRUE 0.332 FALSE TRUE
jf 3 6 92 speed light 24 light 2 TRUE 0.411 FALSE TRUE
jf 3 6 93 speed dark 17 light 2 FALSE 0.4 FALSE FALSE
jf 3 6 94 speed light 4 dark 1 FALSE 0.429 FALSE FALSE
jf 3 6 95 speed light 16 light 2 TRUE 0.436 FALSE TRUE
jf 3 6 96 speed light 15 light 2 TRUE 0.432 FALSE TRUE
jf 3 6 97 speed dark 11 dark 1 TRUE 0.603 FALSE TRUE
jf 3 6 98 speed light 19 light 2 TRUE 0.368 FALSE TRUE
jf 3 6 99 speed dark 0 dark 1 TRUE 0.27 FALSE TRUE
jf 3 6 100 speed dark 21 light 2 FALSE 0.361 FALSE FALSE
jf 3 6 101 speed dark 10 dark 1 TRUE 0.364 FALSE TRUE
jf 3 6 102 speed light 28 light 2 TRUE 0.361 FALSE TRUE
jf 3 7 2 accuracy light 18 light 2 TRUE 0.548 FALSE TRUE
jf 3 7 3 accuracy light 19 dark 1 FALSE 0.588 FALSE FALSE
jf 3 7 4 accuracy light 29 light 2 TRUE 0.586 FALSE TRUE
jf 3 7 5 accuracy dark 6 dark 1 TRUE 0.554 FALSE TRUE
jf 3 7 6 accuracy dark 17 light 2 FALSE 0.545 FALSE FALSE
jf 3 7 7 accuracy light 15 light 2 TRUE 0.591 FALSE TRUE
jf 3 7 8 accuracy dark 17 light 2 FALSE 0.483 FALSE FALSE
jf 3 7 9 accuracy dark 7 dark 1 TRUE 0.481 FALSE TRUE
jf 3 7 10 accuracy dark 4 dark 1 TRUE 1.609 FALSE TRUE
jf 3 7 11 accuracy light 19 light 2 TRUE 0.563 FALSE TRUE
jf 3 7 12 accuracy light 22 light 2 TRUE 0.583 FALSE TRUE
jf 3 7 13 accuracy dark 17 light 2 FALSE 0.633 FALSE FALSE
jf 3 7 14 accuracy light 7 dark 1 FALSE 0.448 FALSE FALSE
jf 3 7 15 accuracy dark 7 dark 1 TRUE 0.708 FALSE TRUE
jf 3 7 16 accuracy dark 17 light 2 FALSE 0.497 FALSE FALSE
jf 3 7 17 accuracy light 23 light 2 TRUE 0.476 FALSE TRUE
jf 3 7 18 accuracy dark 13 dark 1 TRUE 0.388 FALSE TRUE
jf 3 7 19 accuracy light 14 dark 1 FALSE 0.402 FALSE FALSE
jf 3 7 20 accuracy dark 17 light 2 FALSE 0.405 FALSE FALSE
jf 3 7 21 accuracy dark 15 light 2 FALSE 0.542 FALSE FALSE
jf 3 7 22 accuracy light 19 light 2 TRUE 0.905 FALSE TRUE
jf 3 7 23 accuracy light 14 dark 1 FALSE 0.752 FALSE FALSE
jf 3 7 24 accuracy dark 13 dark 1 TRUE 1.137 FALSE TRUE
jf 3 7 25 accuracy dark 25 light 2 FALSE 0.742 FALSE FALSE
jf 3 7 26 accuracy dark 1 dark 1 TRUE 0.711 FALSE TRUE
jf 3 7 27 accuracy dark 18 light 2 FALSE 1.024 FALSE FALSE
jf 3 7 28 accuracy dark 12 dark 1 TRUE 0.86 FALSE TRUE
jf 3 7 29 accuracy light 28 light 2 TRUE 0.926 FALSE TRUE
jf 3 7 30 accuracy dark 12 dark 1 TRUE 0.902 FALSE TRUE
jf 3 7 31 accuracy light 31 light 2 TRUE 0.711 FALSE TRUE
jf 3 7 32 accuracy light 13 dark 1 FALSE 0.719 FALSE FALSE
jf 3 7 33 accuracy dark 11 dark 1 TRUE 0.941 FALSE TRUE
jf 3 7 34 accuracy dark 12 dark 1 TRUE 1.28 FALSE TRUE
jf 3 7 35 accuracy light 10 dark 1 FALSE 0.766 FALSE FALSE
jf 3 7 36 accuracy dark 15 dark 1 TRUE 1.65 FALSE TRUE
jf 3 7 37 accuracy light 9 dark 1 FALSE 0.731 FALSE FALSE
jf 3 7 38 accuracy light 19 light 2 TRUE 0.901 FALSE TRUE
jf 3 7 39 accuracy dark 7 dark 1 TRUE 1.017 FALSE TRUE
jf 3 7 40 accuracy light 22 light 2 TRUE 0.993 FALSE TRUE
jf 3 7 41 accuracy dark 9 dark 1 TRUE 0.704 FALSE TRUE
jf 3 7 42 accuracy light 21 light 2 TRUE 0.845 FALSE TRUE
jf 3 7 43 accuracy dark 15 dark 1 TRUE 0.935 FALSE TRUE
jf 3 7 44 accuracy dark 22 light 2 FALSE 0.794 FALSE FALSE
jf 3 7 45 accuracy dark 3 dark 1 TRUE 0.712 FALSE TRUE
jf 3 7 46 accuracy light 21 light 2 TRUE 0.926 FALSE TRUE
jf 3 7 47 accuracy light 22 light 2 TRUE 0.962 FALSE TRUE
jf 3 7 48 accuracy light 15 light 2 TRUE 0.914 FALSE TRUE
jf 3 7 49 accuracy dark 14 light 2 FALSE 0.847 FALSE FALSE
jf 3 7 50 accuracy light 26 light 2 TRUE 0.874 FALSE TRUE
jf 3 7 51 accuracy dark 19 light 2 FALSE 0.764 FALSE FALSE
jf 3 7 52 accuracy light 16 dark 1 FALSE 1.227 FALSE FALSE
jf 3 7 53 accuracy dark 11 dark 1 TRUE 0.675 FALSE TRUE
jf 3 7 54 accuracy dark 12 dark 1 TRUE 0.684 FALSE TRUE
jf 3 7 55 accuracy dark 19 light 2 FALSE 0.743 FALSE FALSE
jf 3 7 56 accuracy dark 8 dark 1 TRUE 0.662 FALSE TRUE
jf 3 7 57 accuracy dark 13 dark 1 TRUE 0.632 FALSE TRUE
jf 3 7 58 accuracy dark 11 dark 1 TRUE 0.668 FALSE TRUE
jf 3 7 59 accuracy dark 15 light 2 FALSE 0.843 FALSE FALSE
jf 3 7 60 accuracy light 20 light 2 TRUE 0.707 FALSE TRUE
jf 3 7 61 accuracy light 28 light 2 TRUE 0.682 FALSE TRUE
jf 3 7 62 accuracy dark 13 dark 1 TRUE 0.687 FALSE TRUE
jf 3 7 63 accuracy dark 27 light 2 FALSE 0.678 FALSE FALSE
jf 3 7 64 accuracy dark 14 dark 1 TRUE 0.728 FALSE TRUE
jf 3 7 65 accuracy dark 11 dark 1 TRUE 0.648 FALSE TRUE
jf 3 7 66 accuracy light 18 light 2 TRUE 0.727 FALSE TRUE
jf 3 7 67 accuracy light 19 light 2 TRUE 0.681 FALSE TRUE
jf 3 7 68 accuracy dark 17 dark 1 TRUE 0.985 FALSE TRUE
jf 3 7 69 accuracy light 16 light 2 TRUE 0.809 FALSE TRUE
jf 3 7 70 accuracy dark 17 light 2 FALSE 0.665 FALSE FALSE
jf 3 7 71 accuracy dark 8 dark 1 TRUE 0.628 FALSE TRUE
jf 3 7 72 accuracy light 20 light 2 TRUE 0.695 FALSE TRUE
jf 3 7 73 accuracy dark 4 dark 1 TRUE 0.653 FALSE TRUE
jf 3 7 74 accuracy dark 21 light 2 FALSE 0.579 FALSE FALSE
jf 3 7 75 accuracy light 21 light 2 TRUE 0.576 FALSE TRUE
jf 3 7 76 accuracy light 17 light 2 TRUE 0.732 FALSE TRUE
jf 3 7 77 accuracy light 15 dark 1 FALSE 0.719 FALSE FALSE
jf 3 7 78 accuracy light 14 light 2 TRUE 0.636 FALSE TRUE
jf 3 7 79 accuracy dark 0 dark 1 TRUE 0.621 FALSE TRUE
jf 3 7 80 accuracy dark 14 dark 1 TRUE 0.666 FALSE TRUE
jf 3 7 81 accuracy light 18 light 2 TRUE 0.661 FALSE TRUE
jf 3 7 82 accuracy light 22 light 2 TRUE 0.65 FALSE TRUE
jf 3 7 83 accuracy dark 9 dark 1 TRUE 0.62 FALSE TRUE
jf 3 7 84 accuracy dark 8 dark 1 TRUE 0.633 FALSE TRUE
jf 3 7 85 accuracy light 21 light 2 TRUE 0.677 FALSE TRUE
jf 3 7 86 accuracy light 25 light 2 TRUE 0.699 FALSE TRUE
jf 3 7 87 accuracy light 30 light 2 TRUE 0.747 FALSE TRUE
jf 3 7 88 accuracy light 22 light 2 TRUE 0.734 FALSE TRUE
jf 3 7 89 accuracy light 25 light 2 TRUE 0.715 FALSE TRUE
jf 3 7 90 accuracy dark 18 light 2 FALSE 0.666 FALSE FALSE
jf 3 7 91 accuracy light 14 dark 1 FALSE 0.793 FALSE FALSE
jf 3 7 92 accuracy dark 8 dark 1 TRUE 0.642 FALSE TRUE
jf 3 7 93 accuracy light 16 dark 1 FALSE 0.633 FALSE FALSE
jf 3 7 94 accuracy light 15 light 2 TRUE 0.571 FALSE TRUE
jf 3 7 95 accuracy light 26 light 2 TRUE 0.466 FALSE TRUE
jf 3 7 96 accuracy light 8 dark 1 FALSE 0.456 FALSE FALSE
jf 3 7 97 accuracy light 21 light 2 TRUE 0.455 FALSE TRUE
jf 3 7 98 accuracy light 14 dark 1 FALSE 0.389 FALSE FALSE
jf 3 7 99 accuracy dark 20 light 2 FALSE 0.504 FALSE FALSE
jf 3 7 100 accuracy light 28 light 2 TRUE 0.558 FALSE TRUE
jf 3 7 101 accuracy dark 12 dark 1 TRUE 0.357 FALSE TRUE
jf 3 7 102 accuracy dark 18 light 2 FALSE 0.512 FALSE FALSE
jf 3 8 2 accuracy dark 15 dark 1 TRUE 0.385 FALSE TRUE
jf 3 8 3 accuracy dark 21 light 2 FALSE 0.496 FALSE FALSE
jf 3 8 4 accuracy dark 15 light 2 FALSE 0.476 FALSE FALSE
jf 3 8 5 accuracy dark 14 dark 1 TRUE 0.415 FALSE TRUE
jf 3 8 6 accuracy light 22 light 2 TRUE 0.462 FALSE TRUE
jf 3 8 7 accuracy dark 12 dark 1 TRUE 0.504 FALSE TRUE
jf 3 8 8 accuracy dark 3 dark 1 TRUE 0.367 FALSE TRUE
jf 3 8 9 accuracy light 11 dark 1 FALSE 0.384 FALSE FALSE
jf 3 8 10 accuracy light 22 light 2 TRUE 0.407 FALSE TRUE
jf 3 8 11 accuracy dark 13 dark 1 TRUE 0.339 FALSE TRUE
jf 3 8 12 accuracy light 12 dark 1 FALSE 0.334 FALSE FALSE
jf 3 8 13 accuracy light 24 light 2 TRUE 0.372 FALSE TRUE
jf 3 8 14 accuracy dark 10 dark 1 TRUE 0.306 FALSE TRUE
jf 3 8 15 accuracy dark 11 dark 1 TRUE 0.335 FALSE TRUE
jf 3 8 16 accuracy light 31 light 2 TRUE 0.363 FALSE TRUE
jf 3 8 17 accuracy dark 18 dark 1 TRUE 0.406 FALSE TRUE
jf 3 8 18 accuracy dark 16 dark 1 TRUE 0.385 FALSE TRUE
jf 3 8 19 accuracy dark 12 dark 1 TRUE 0.352 FALSE TRUE
jf 3 8 20 accuracy light 20 light 2 TRUE 0.364 FALSE TRUE
jf 3 8 21 accuracy light 18 light 2 TRUE 0.302 FALSE TRUE
jf 3 8 22 accuracy dark 2 dark 1 TRUE 0.274 FALSE TRUE
jf 3 8 23 accuracy dark 22 light 2 FALSE 0.28 FALSE FALSE
jf 3 8 24 accuracy light 9 dark 1 FALSE 0.315 FALSE FALSE
jf 3 8 25 accuracy dark 7 dark 1 TRUE 0.342 FALSE TRUE
jf 3 8 26 accuracy dark 7 dark 1 TRUE 0.367 FALSE TRUE
jf 3 8 27 accuracy dark 21 light 2 FALSE 0.397 FALSE FALSE
jf 3 8 28 accuracy dark 17 dark 1 TRUE 0.431 FALSE TRUE
jf 3 8 29 accuracy light 5 dark 1 FALSE 0.401 FALSE FALSE
jf 3 8 30 accuracy light 20 light 2 TRUE 0.388 FALSE TRUE
jf 3 8 31 accuracy light 22 light 2 TRUE 0.367 FALSE TRUE
jf 3 8 32 accuracy dark 5 dark 1 TRUE 0.421 FALSE TRUE
jf 3 8 33 accuracy dark 9 dark 1 TRUE 0.334 FALSE TRUE
jf 3 8 34 accuracy light 18 light 2 TRUE 0.395 FALSE TRUE
jf 3 8 35 accuracy dark 16 light 2 FALSE 0.367 FALSE FALSE
jf 3 8 36 accuracy dark 19 light 2 FALSE 0.409 FALSE FALSE
jf 3 8 37 accuracy light 14 dark 1 FALSE 0.413 FALSE FALSE
jf 3 8 38 accuracy dark 0 dark 1 TRUE 0.51 FALSE TRUE
jf 3 8 39 accuracy dark 11 dark 1 TRUE 0.549 FALSE TRUE
jf 3 8 40 accuracy light 14 dark 1 FALSE 0.599 FALSE FALSE
jf 3 8 41 accuracy light 24 light 2 TRUE 0.404 FALSE TRUE
jf 3 8 42 accuracy light 18 light 2 TRUE 0.649 FALSE TRUE
jf 3 8 43 accuracy dark 12 dark 1 TRUE 0.603 FALSE TRUE
jf 3 8 44 accuracy dark 4 dark 1 TRUE 0.467 FALSE TRUE
jf 3 8 45 accuracy dark 17 light 2 FALSE 0.61 FALSE FALSE
jf 3 8 46 accuracy light 24 light 2 TRUE 0.542 FALSE TRUE
jf 3 8 47 accuracy dark 9 dark 1 TRUE 0.586 FALSE TRUE
jf 3 8 48 accuracy dark 14 dark 1 TRUE 0.468 FALSE TRUE
jf 3 8 49 accuracy light 28 light 2 TRUE 0.494 FALSE TRUE
jf 3 8 50 accuracy light 15 dark 1 FALSE 0.538 FALSE FALSE
jf 3 8 51 accuracy dark 0 dark 1 TRUE 0.475 FALSE TRUE
jf 3 8 52 accuracy light 24 light 2 TRUE 0.379 FALSE TRUE
jf 3 8 53 accuracy light 27 light 2 TRUE 0.467 FALSE TRUE
jf 3 8 54 accuracy dark 18 dark 1 TRUE 0.655 FALSE TRUE
jf 3 8 55 accuracy dark 16 light 2 FALSE 0.725 FALSE FALSE
jf 3 8 56 accuracy dark 10 dark 1 TRUE 0.529 FALSE TRUE
jf 3 8 57 accuracy light 12 dark 1 FALSE 0.714 FALSE FALSE
jf 3 8 58 accuracy dark 12 dark 1 TRUE 0.607 FALSE TRUE
jf 3 8 59 accuracy light 24 light 2 TRUE 0.511 FALSE TRUE
jf 3 8 60 accuracy light 28 light 2 TRUE 0.633 FALSE TRUE
jf 3 8 61 accuracy dark 4 dark 1 TRUE 0.719 FALSE TRUE
jf 3 8 62 accuracy dark 9 dark 1 TRUE 0.732 FALSE TRUE
jf 3 8 63 accuracy light 31 light 2 TRUE 0.594 FALSE TRUE
jf 3 8 64 accuracy light 20 light 2 TRUE 0.649 FALSE TRUE
jf 3 8 65 accuracy light 14 light 2 TRUE 0.714 FALSE TRUE
jf 3 8 66 accuracy dark 15 dark 1 TRUE 0.603 FALSE TRUE
jf 3 8 67 accuracy dark 10 dark 1 TRUE 0.532 FALSE TRUE
jf 3 8 68 accuracy light 24 light 2 TRUE 0.511 FALSE TRUE
jf 3 8 69 accuracy light 8 dark 1 FALSE 0.37 FALSE FALSE
jf 3 8 70 accuracy light 16 light 2 TRUE 0.454 FALSE TRUE
jf 3 8 71 accuracy light 12 dark 1 FALSE 0.355 FALSE FALSE
jf 3 8 72 accuracy dark 13 dark 1 TRUE 0.459 FALSE TRUE
jf 3 8 73 accuracy dark 10 dark 1 TRUE 0.416 FALSE TRUE
jf 3 8 74 accuracy light 29 light 2 TRUE 0.595 FALSE TRUE
jf 3 8 75 accuracy dark 13 dark 1 TRUE 0.388 FALSE TRUE
jf 3 8 76 accuracy light 26 light 2 TRUE 0.429 FALSE TRUE
jf 3 8 77 accuracy dark 10 dark 1 TRUE 0.328 FALSE TRUE
jf 3 8 78 accuracy light 18 light 2 TRUE 0.38 FALSE TRUE
jf 3 8 79 accuracy dark 8 dark 1 TRUE 0.422 FALSE TRUE
jf 3 8 80 accuracy dark 13 dark 1 TRUE 0.401 FALSE TRUE
jf 3 8 81 accuracy light 9 dark 1 FALSE 0.351 FALSE FALSE
jf 3 8 82 accuracy dark 15 dark 1 TRUE 0.493 FALSE TRUE
jf 3 8 83 accuracy dark 3 dark 1 TRUE 0.368 FALSE TRUE
jf 3 8 84 accuracy light 19 light 2 TRUE 0.595 FALSE TRUE
jf 3 8 85 accuracy dark 7 dark 1 TRUE 0.438 FALSE TRUE
jf 3 8 86 accuracy light 20 light 2 TRUE 0.447 FALSE TRUE
jf 3 8 87 accuracy dark 24 light 2 FALSE 0.5 FALSE FALSE
jf 3 8 88 accuracy light 19 light 2 TRUE 0.592 FALSE TRUE
jf 3 8 89 accuracy light 12 dark 1 FALSE 0.455 FALSE FALSE
jf 3 8 90 accuracy dark 13 light 2 FALSE 0.473 FALSE FALSE
jf 3 8 91 accuracy light 23 light 2 TRUE 0.491 FALSE TRUE
jf 3 8 92 accuracy light 18 light 2 TRUE 0.551 FALSE TRUE
jf 3 8 93 accuracy light 22 light 2 TRUE 0.466 FALSE TRUE
jf 3 8 94 accuracy light 31 light 2 TRUE 0.419 FALSE TRUE
jf 3 8 95 accuracy light 17 dark 1 FALSE 0.472 FALSE FALSE
jf 3 8 96 accuracy dark 8 dark 1 TRUE 0.443 FALSE TRUE
jf 3 8 97 accuracy light 23 light 2 TRUE 0.429 FALSE TRUE
jf 3 8 98 accuracy dark 4 dark 1 TRUE 0.521 FALSE TRUE
jf 3 8 99 accuracy dark 9 dark 1 TRUE 0.581 FALSE TRUE
jf 3 8 100 accuracy dark 5 dark 1 TRUE 0.401 FALSE TRUE
jf 3 8 101 accuracy dark 11 light 2 FALSE 0.497 FALSE FALSE
jf 3 8 102 accuracy light 20 light 2 TRUE 0.77 FALSE TRUE
jf 4 1 21 accuracy dark 4 dark 1 TRUE 0.698 FALSE TRUE
jf 4 1 22 accuracy dark 22 light 2 FALSE 0.678 FALSE FALSE
jf 4 1 23 accuracy light 25 light 2 TRUE 0.658 FALSE TRUE
jf 4 1 24 accuracy dark 7 dark 1 TRUE 0.439 FALSE TRUE
jf 4 1 25 accuracy light 18 light 2 TRUE 0.71 FALSE TRUE
jf 4 1 26 accuracy light 25 light 2 TRUE 0.484 FALSE TRUE
jf 4 1 27 accuracy dark 10 dark 1 TRUE 0.339 FALSE TRUE
jf 4 1 28 accuracy light 27 light 2 TRUE 0.43 FALSE TRUE
jf 4 1 29 accuracy light 13 dark 1 FALSE 0.389 FALSE FALSE
jf 4 1 30 accuracy light 22 light 2 TRUE 0.702 FALSE TRUE
jf 4 1 31 accuracy dark 1 dark 1 TRUE 0.536 FALSE TRUE
jf 4 1 32 accuracy dark 9 dark 1 TRUE 0.747 FALSE TRUE
jf 4 1 33 accuracy light 27 light 2 TRUE 0.526 FALSE TRUE
jf 4 1 34 accuracy dark 0 dark 1 TRUE 0.537 FALSE TRUE
jf 4 1 35 accuracy dark 11 dark 1 TRUE 0.532 FALSE TRUE
jf 4 1 36 accuracy light 26 light 2 TRUE 0.66 FALSE TRUE
jf 4 1 37 accuracy light 29 light 2 TRUE 0.482 FALSE TRUE
jf 4 1 38 accuracy light 8 dark 1 FALSE 0.489 FALSE FALSE
jf 4 1 39 accuracy light 22 light 2 TRUE 0.719 FALSE TRUE
jf 4 1 40 accuracy light 24 light 2 TRUE 0.533 FALSE TRUE
jf 4 1 41 accuracy light 26 light 2 TRUE 0.566 FALSE TRUE
jf 4 1 42 accuracy dark 21 light 2 FALSE 0.699 FALSE FALSE
jf 4 1 43 accuracy light 24 light 2 TRUE 0.707 FALSE TRUE
jf 4 1 44 accuracy dark 24 light 2 FALSE 0.75 FALSE FALSE
jf 4 1 45 accuracy light 22 light 2 TRUE 3.586 TRUE TRUE
jf 4 1 46 accuracy dark 8 dark 1 TRUE 0.703 FALSE TRUE
jf 4 1 47 accuracy light 26 light 2 TRUE 0.808 FALSE TRUE
jf 4 1 48 accuracy dark 11 dark 1 TRUE 0.804 FALSE TRUE
jf 4 1 49 accuracy dark 7 dark 1 TRUE 0.929 FALSE TRUE
jf 4 1 50 accuracy light 22 light 2 TRUE 0.612 FALSE TRUE
jf 4 1 51 accuracy dark 15 dark 1 TRUE 0.487 FALSE TRUE
jf 4 1 52 accuracy dark 0 dark 1 TRUE 0.535 FALSE TRUE
jf 4 1 53 accuracy light 17 light 2 TRUE 0.776 FALSE TRUE
jf 4 1 54 accuracy light 22 light 2 TRUE 0.583 FALSE TRUE
jf 4 1 55 accuracy dark 23 light 2 FALSE 0.896 FALSE FALSE
jf 4 1 56 accuracy light 17 dark 1 FALSE 1.026 FALSE FALSE
jf 4 1 57 accuracy dark 15 dark 1 TRUE 0.887 FALSE TRUE
jf 4 1 58 accuracy dark 11 dark 1 TRUE 0.632 FALSE TRUE
jf 4 1 59 accuracy dark 9 dark 1 TRUE 0.847 FALSE TRUE
jf 4 1 60 accuracy dark 9 dark 1 TRUE 0.683 FALSE TRUE
jf 4 1 61 accuracy dark 10 dark 1 TRUE 0.682 FALSE TRUE
jf 4 1 62 accuracy dark 9 dark 1 TRUE 1.51 FALSE TRUE
jf 4 1 63 accuracy dark 14 light 2 FALSE 2.381 FALSE FALSE
jf 4 1 64 accuracy light 17 light 2 TRUE 0.789 FALSE TRUE
jf 4 1 65 accuracy light 29 light 2 TRUE 0.598 FALSE TRUE
jf 4 1 66 accuracy light 18 light 2 TRUE 0.98 FALSE TRUE
jf 4 1 67 accuracy light 14 light 2 TRUE 0.599 FALSE TRUE
jf 4 1 68 accuracy light 18 light 2 TRUE 0.598 FALSE TRUE
jf 4 1 69 accuracy light 24 light 2 TRUE 0.498 FALSE TRUE
jf 4 1 70 accuracy light 16 light 2 TRUE 0.715 FALSE TRUE
jf 4 1 71 accuracy dark 10 light 2 FALSE 0.747 FALSE FALSE
jf 4 1 72 accuracy light 23 light 2 TRUE 0.82 FALSE TRUE
jf 4 1 73 accuracy light 22 light 2 TRUE 0.499 FALSE TRUE
jf 4 1 74 accuracy dark 5 dark 1 TRUE 0.388 FALSE TRUE
jf 4 1 75 accuracy light 16 light 2 TRUE 0.429 FALSE TRUE
jf 4 1 76 accuracy light 23 light 2 TRUE 0.468 FALSE TRUE
jf 4 1 77 accuracy light 22 light 2 TRUE 0.5 FALSE TRUE
jf 4 1 78 accuracy dark 15 dark 1 TRUE 0.457 FALSE TRUE
jf 4 1 79 accuracy dark 9 dark 1 TRUE 0.548 FALSE TRUE
jf 4 1 80 accuracy dark 10 dark 1 TRUE 0.451 FALSE TRUE
jf 4 1 81 accuracy light 14 dark 1 FALSE 0.501 FALSE FALSE
jf 4 1 82 accuracy dark 15 light 2 FALSE 0.72 FALSE FALSE
jf 4 1 83 accuracy light 5 dark 1 FALSE 0.645 FALSE FALSE
jf 4 1 84 accuracy dark 20 light 2 FALSE 1.148 FALSE FALSE
jf 4 1 85 accuracy dark 18 light 2 FALSE 3.851 TRUE FALSE
jf 4 1 86 accuracy light 29 light 2 TRUE 0.64 FALSE TRUE
jf 4 1 87 accuracy dark 17 light 2 FALSE 1.111 FALSE FALSE
jf 4 1 88 accuracy dark 12 dark 1 TRUE 0.86 FALSE TRUE
jf 4 1 89 accuracy dark 20 light 2 FALSE 1.934 FALSE FALSE
jf 4 1 90 accuracy light 15 dark 1 FALSE 0.91 FALSE FALSE
jf 4 1 91 accuracy dark 15 light 2 FALSE 1.661 FALSE FALSE
jf 4 1 92 accuracy light 19 light 2 TRUE 0.608 FALSE TRUE
jf 4 1 93 accuracy dark 12 dark 1 TRUE 4.708 TRUE TRUE
jf 4 1 94 accuracy light 22 light 2 TRUE 0.826 FALSE TRUE
jf 4 1 95 accuracy dark 19 light 2 FALSE 1.112 FALSE FALSE
jf 4 1 96 accuracy light 21 light 2 TRUE 1.567 FALSE TRUE
jf 4 1 97 accuracy dark 7 dark 1 TRUE 0.652 FALSE TRUE
jf 4 1 98 accuracy light 14 dark 1 FALSE 1.064 FALSE FALSE
jf 4 1 99 accuracy light 23 light 2 TRUE 0.753 FALSE TRUE
jf 4 1 100 accuracy dark 6 dark 1 TRUE 0.588 FALSE TRUE
jf 4 1 101 accuracy dark 18 light 2 FALSE 0.678 FALSE FALSE
jf 4 1 102 accuracy dark 17 light 2 FALSE 1.385 FALSE FALSE
jf 4 2 2 accuracy light 14 dark 1 FALSE 2.366 FALSE FALSE
jf 4 2 3 accuracy light 24 light 2 TRUE 1.099 FALSE TRUE
jf 4 2 4 accuracy light 23 light 2 TRUE 1.293 FALSE TRUE
jf 4 2 5 accuracy light 20 light 2 TRUE 1.526 FALSE TRUE
jf 4 2 6 accuracy light 25 light 2 TRUE 1.343 FALSE TRUE
jf 4 2 7 accuracy light 24 light 2 TRUE 1.461 FALSE TRUE
jf 4 2 8 accuracy dark 10 dark 1 TRUE 0.787 FALSE TRUE
jf 4 2 9 accuracy dark 20 light 2 FALSE 1.191 FALSE FALSE
jf 4 2 10 accuracy dark 25 light 2 FALSE 1.931 FALSE FALSE
jf 4 2 11 accuracy dark 15 dark 1 TRUE 8.508 TRUE TRUE
jf 4 2 12 accuracy light 24 light 2 TRUE 2.761 TRUE TRUE
jf 4 2 13 accuracy light 24 light 2 TRUE 1.046 FALSE TRUE
jf 4 2 14 accuracy light 17 dark 1 FALSE 1.151 FALSE FALSE
jf 4 2 15 accuracy light 16 light 2 TRUE 0.916 FALSE TRUE
jf 4 2 16 accuracy light 20 light 2 TRUE 1.908 FALSE TRUE
jf 4 2 17 accuracy light 25 light 2 TRUE 0.765 FALSE TRUE
jf 4 2 18 accuracy light 27 light 2 TRUE 0.882 FALSE TRUE
jf 4 2 19 accuracy dark 16 dark 1 TRUE 0.888 FALSE TRUE
jf 4 2 20 accuracy dark 9 dark 1 TRUE 0.683 FALSE TRUE
jf 4 2 21 accuracy dark 6 dark 1 TRUE 0.617 FALSE TRUE
jf 4 2 22 accuracy dark 14 light 2 FALSE 0.629 FALSE FALSE
jf 4 2 23 accuracy light 13 dark 1 FALSE 1.425 FALSE FALSE
jf 4 2 24 accuracy dark 16 light 2 FALSE 0.67 FALSE FALSE
jf 4 2 25 accuracy light 27 light 2 TRUE 0.656 FALSE TRUE
jf 4 2 26 accuracy light 23 light 2 TRUE 0.7 FALSE TRUE
jf 4 2 27 accuracy light 26 light 2 TRUE 0.665 FALSE TRUE
jf 4 2 28 accuracy dark 6 dark 1 TRUE 0.654 FALSE TRUE
jf 4 2 29 accuracy light 24 light 2 TRUE 0.676 FALSE TRUE
jf 4 2 30 accuracy light 19 light 2 TRUE 1.013 FALSE TRUE
jf 4 2 31 accuracy light 18 light 2 TRUE 0.697 FALSE TRUE
jf 4 2 32 accuracy dark 17 dark 1 TRUE 2.259 FALSE TRUE
jf 4 2 33 accuracy light 23 light 2 TRUE 0.825 FALSE TRUE
jf 4 2 34 accuracy dark 14 dark 1 TRUE 0.703 FALSE TRUE
jf 4 2 35 accuracy dark 14 dark 1 TRUE 2.122 FALSE TRUE
jf 4 2 36 accuracy dark 12 dark 1 TRUE 0.616 FALSE TRUE
jf 4 2 37 accuracy light 25 light 2 TRUE 0.694 FALSE TRUE
jf 4 2 38 accuracy dark 16 light 2 FALSE 0.997 FALSE FALSE
jf 4 2 39 accuracy dark 7 dark 1 TRUE 0.744 FALSE TRUE
jf 4 2 40 accuracy light 22 light 2 TRUE 0.663 FALSE TRUE
jf 4 2 41 accuracy light 21 light 2 TRUE 0.747 FALSE TRUE
jf 4 2 42 accuracy light 24 light 2 TRUE 0.649 FALSE TRUE
jf 4 2 43 accuracy dark 17 dark 1 TRUE 0.887 FALSE TRUE
jf 4 2 44 accuracy dark 12 dark 1 TRUE 0.566 FALSE TRUE
jf 4 2 45 accuracy light 22 light 2 TRUE 0.645 FALSE TRUE
jf 4 2 46 accuracy light 29 light 2 TRUE 0.583 FALSE TRUE
jf 4 2 47 accuracy light 8 dark 1 FALSE 0.604 FALSE FALSE
jf 4 2 48 accuracy dark 14 light 2 FALSE 1.116 FALSE FALSE
jf 4 2 49 accuracy light 18 dark 1 FALSE 0.677 FALSE FALSE
jf 4 2 50 accuracy light 20 light 2 TRUE 2.406 FALSE TRUE
jf 4 2 51 accuracy dark 10 dark 1 TRUE 0.884 FALSE TRUE
jf 4 2 52 accuracy dark 11 dark 1 TRUE 1.162 FALSE TRUE
jf 4 2 53 accuracy light 10 dark 1 FALSE 1.178 FALSE FALSE
jf 4 2 54 accuracy dark 20 light 2 FALSE 1.514 FALSE FALSE
jf 4 2 55 accuracy light 16 light 2 TRUE 5.423 TRUE TRUE
jf 4 2 56 accuracy dark 16 dark 1 TRUE 2.34 FALSE TRUE
jf 4 2 57 accuracy dark 13 dark 1 TRUE 1.027 FALSE TRUE
jf 4 2 58 accuracy dark 8 dark 1 TRUE 0.881 FALSE TRUE
jf 4 2 59 accuracy light 10 dark 1 FALSE 0.698 FALSE FALSE
jf 4 2 60 accuracy light 23 light 2 TRUE 0.719 FALSE TRUE
jf 4 2 61 accuracy dark 13 dark 1 TRUE 0.968 FALSE TRUE
jf 4 2 62 accuracy light 18 light 2 TRUE 0.893 FALSE TRUE
jf 4 2 63 accuracy light 1 dark 1 FALSE 0.702 FALSE FALSE
jf 4 2 64 accuracy dark 2 dark 1 TRUE 2.959 TRUE TRUE
jf 4 2 65 accuracy light 15 light 2 TRUE 1.057 FALSE TRUE
jf 4 2 66 accuracy dark 12 dark 1 TRUE 1.927 FALSE TRUE
jf 4 2 67 accuracy light 13 light 2 TRUE 2.794 TRUE TRUE
jf 4 2 68 accuracy dark 13 dark 1 TRUE 2.953 TRUE TRUE
jf 4 2 69 accuracy dark 8 dark 1 TRUE 0.861 FALSE TRUE
jf 4 2 70 accuracy dark 12 dark 1 TRUE 0.997 FALSE TRUE
jf 4 2 71 accuracy light 19 light 2 TRUE 0.659 FALSE TRUE
jf 4 2 72 accuracy light 17 light 2 TRUE 0.666 FALSE TRUE
jf 4 2 73 accuracy dark 15 light 2 FALSE 0.532 FALSE FALSE
jf 4 2 74 accuracy light 24 light 2 TRUE 0.807 FALSE TRUE
jf 4 2 75 accuracy dark 19 light 2 FALSE 4.158 TRUE FALSE
jf 4 2 76 accuracy dark 15 dark 1 TRUE 0.694 FALSE TRUE
jf 4 2 77 accuracy dark 11 dark 1 TRUE 0.615 FALSE TRUE
jf 4 2 78 accuracy dark 14 dark 1 TRUE 2.321 FALSE TRUE
jf 4 2 79 accuracy light 19 light 2 TRUE 0.942 FALSE TRUE
jf 4 2 80 accuracy light 18 light 2 TRUE 1.642 FALSE TRUE
jf 4 2 81 accuracy dark 9 dark 1 TRUE 0.602 FALSE TRUE
jf 4 2 82 accuracy light 17 light 2 TRUE 0.463 FALSE TRUE
jf 4 2 83 accuracy dark 1 dark 1 TRUE 0.571 FALSE TRUE
jf 4 2 84 accuracy light 15 light 2 TRUE 0.562 FALSE TRUE
jf 4 2 85 accuracy dark 12 light 2 FALSE 0.632 FALSE FALSE
jf 4 2 86 accuracy light 11 dark 1 FALSE 1.292 FALSE FALSE
jf 4 2 87 accuracy dark 23 light 2 FALSE 0.587 FALSE FALSE
jf 4 2 88 accuracy dark 2 dark 1 TRUE 0.696 FALSE TRUE
jf 4 2 89 accuracy light 28 light 2 TRUE 0.757 FALSE TRUE
jf 4 2 90 accuracy light 21 light 2 TRUE 0.632 FALSE TRUE
jf 4 2 91 accuracy light 15 dark 1 FALSE 1.15 FALSE FALSE
jf 4 2 92 accuracy light 22 light 2 TRUE 0.67 FALSE TRUE
jf 4 2 93 accuracy dark 7 dark 1 TRUE 0.588 FALSE TRUE
jf 4 2 94 accuracy dark 10 dark 1 TRUE 1.328 FALSE TRUE
jf 4 2 95 accuracy dark 19 light 2 FALSE 0.578 FALSE FALSE
jf 4 2 96 accuracy light 17 light 2 TRUE 0.608 FALSE TRUE
jf 4 2 97 accuracy dark 4 dark 1 TRUE 0.621 FALSE TRUE
jf 4 2 98 accuracy light 16 light 2 TRUE 0.595 FALSE TRUE
jf 4 2 99 accuracy light 19 light 2 TRUE 0.617 FALSE TRUE
jf 4 2 100 accuracy dark 15 light 2 FALSE 0.551 FALSE FALSE
jf 4 2 101 accuracy light 24 light 2 TRUE 0.593 FALSE TRUE
jf 4 2 102 accuracy dark 11 dark 1 TRUE 0.672 FALSE TRUE
jf 4 3 2 speed dark 9 dark 1 TRUE 0.31 FALSE TRUE
jf 4 3 3 speed dark 5 dark 1 TRUE 0.316 FALSE TRUE
jf 4 3 4 speed light 31 light 2 TRUE 0.327 FALSE TRUE
jf 4 3 5 speed light 32 light 2 TRUE 0.3 FALSE TRUE
jf 4 3 6 speed light 19 dark 1 FALSE 0.335 FALSE FALSE
jf 4 3 7 speed dark 8 dark 1 TRUE 0.342 FALSE TRUE
jf 4 3 8 speed dark 17 dark 1 TRUE 0.282 FALSE TRUE
jf 4 3 9 speed dark 14 dark 1 TRUE 0.304 FALSE TRUE
jf 4 3 10 speed dark 23 light 2 FALSE 0.343 FALSE FALSE
jf 4 3 11 speed dark 17 dark 1 TRUE 0.264 FALSE TRUE
jf 4 3 12 speed dark 12 dark 1 TRUE 0.348 FALSE TRUE
jf 4 3 13 speed dark 9 dark 1 TRUE 0.299 FALSE TRUE
jf 4 3 14 speed dark 14 light 2 FALSE 0.361 FALSE FALSE
jf 4 3 15 speed dark 0 dark 1 TRUE 0.313 FALSE TRUE
jf 4 3 16 speed light 8 dark 1 FALSE 0.299 FALSE FALSE
jf 4 3 17 speed dark 14 light 2 FALSE 0.519 FALSE FALSE
jf 4 3 18 speed dark 3 dark 1 TRUE 0.26 FALSE TRUE
jf 4 3 19 speed dark 17 light 2 FALSE 0.342 FALSE FALSE
jf 4 3 20 speed light 15 dark 1 FALSE 0.281 FALSE FALSE
jf 4 3 21 speed light 31 light 2 TRUE 0.386 FALSE TRUE
jf 4 3 22 speed light 21 dark 1 FALSE 0.452 FALSE FALSE
jf 4 3 23 speed dark 10 dark 1 TRUE 0.365 FALSE TRUE
jf 4 3 24 speed light 24 light 2 TRUE 0.311 FALSE TRUE
jf 4 3 25 speed dark 16 light 2 FALSE 0.429 FALSE FALSE
jf 4 3 26 speed dark 0 dark 1 TRUE 0.296 FALSE TRUE
jf 4 3 27 speed light 25 light 2 TRUE 0.394 FALSE TRUE
jf 4 3 28 speed light 25 light 2 TRUE 0.349 FALSE TRUE
